Time (s),Acceleration x (m/s^2),Acceleration y (m/s^2),Acceleration z (m/s^2)
0.041197042,5.370690346,4.52482748,7.388438225
0.049852042,5.408975601,4.261617184,7.149155617
0.059852042,5.547759533,4.031906128,7.335795879
0.069852042,5.643472195,3.687339783,7.378866673
0.079852042,5.447260857,3.462414265,7.407580853
0.089852042,5.011766911,3.361915827,7.42672348
0.099852042,4.360919476,3.366701365,7.22094059
0.109852042,3.705285788,3.495913982,6.919445038
0.119852042,2.690729141,3.797409534,6.594020844
0.129852042,2.346162558,3.912265062,6.541378975
0.139852042,2.092523336,3.907479286,6.536593437
0.149852042,1.934597135,3.869194269,6.608377934
0.159852042,1.877169371,3.749552965,6.761518478
0.169852042,1.829312921,3.529413462,6.589235306
0.179852042,1.829312921,3.529413462,6.589235306
0.189852042,1.829312921,3.529413462,6.589235306
0.199852042,1.829312921,3.529413462,6.589235306
0.209852042,1.326820135,3.26141715,5.775675774
0.219852042,1.283749342,3.318845034,5.775675774
0.229852042,1.164108157,3.419343472,5.866602898
0.239852042,1.106680512,3.443271875,6.225526333
0.249852042,0.709471941,3.170490026,6.393023968
0.259852042,0.336191595,3.285345554,6.101099491
0.269852042,-0.214157626,3.663411379,5.555535793
0.279852042,-0.826720238,4.247260094,5.081757069
0.289852042,-1.300499082,4.907679081,5.158327579
0.299852042,-1.841277003,5.496313572,6.148955822
0.309852042,-3.157329559,6.39601469,10.25982571
0.319852042,-3.678964853,6.501298904,12.57607746
0.329852042,-3.975674868,6.305087566,14.26541042
0.339852042,-3.927818298,5.845665932,15.03589916
0.349852042,-3.410968781,5.266602516,15.08854103
0.359852042,-2.472982168,4.630111694,14.60519123
0.369852042,-1.396211982,4.146761417,13.88734436
0.379852042,-1.396211982,4.146761417,13.88734436
0.389852042,-1.396211982,4.146761417,13.88734436
0.399852042,-1.396211982,4.146761417,13.88734436
0.409852042,-0.017946171,7.104290485,12.24108219
0.419852042,0.221336097,7.640282631,12.22194004
0.429852042,0.628115952,7.889136314,11.88694477
0.439852042,1.7670995,7.788637638,10.29332447
0.449852042,1.7670995,7.788637638,10.29332447
0.459852042,1.7670995,7.788637638,10.29332447
0.469852042,1.7670995,7.788637638,10.29332447
0.479852042,2.599801779,8.444271088,10.41775131
0.489852042,2.748156786,8.736195564,10.8867445
0.499852042,2.867797852,8.946763992,11.08774185
0.509852042,2.867797852,8.946763992,11.08774185
0.519852042,2.867797852,8.946763992,11.08774185
0.529852042,1.489532113,9.032905579,7.742575645
0.539852042,1.235892892,8.822337151,6.804589272
0.549852042,1.125823021,8.382058144,6.134599209
0.559852042,1.125823021,7.970492363,6.115456581
0.569852042,1.389033556,7.353144169,7.536793232
0.579852042,1.307677627,7.171289444,7.857431412
0.589852042,1.073180914,7.042077065,7.804789066
0.599852042,0.699900627,6.994220734,7.479365349
0.609852042,0.269192547,6.93679285,7.096513748
0.619852042,-0.108873427,6.87457943,6.737590313
0.629852042,-0.898504913,6.534798622,5.947958946
0.639852042,-1.190429211,6.300302029,5.598606586
0.649852042,-1.190429211,6.300302029,5.598606586
0.659852042,-1.266999602,6.175875187,5.593821049
0.669852042,-0.778863788,5.893522263,6.05324316
0.679852042,-0.022731815,5.481956482,6.570092678
0.689852042,-0.022731815,5.481956482,6.570092678
0.699852042,-0.022731815,5.481956482,6.570092678
0.709852042,1.460818172,5.247459888,6.081956863
0.719852042,1.183250785,5.443671703,5.268397331
0.729852042,0.987039328,5.682953835,4.698905468
0.739852042,1.001396298,5.745167255,4.746761799
0.749852042,0.513260484,6.084948063,4.761118889
0.759852042,0.489332229,6.032305717,4.110270977
0.769852042,0.618544638,6.24766016,3.473780155
0.779852042,0.656829834,6.769295216,3.277568817
0.789852042,0.704686284,7.405786037,3.516851187
0.799852042,0.814756095,7.936992645,3.727419376
0.809852042,0.867398202,8.382058144,3.75134778
0.819852042,0.867398202,8.382058144,3.75134778
0.829852042,0.867398202,8.382058144,3.75134778
0.839852042,-0.396012157,10.53081226,0.798604548
0.849852042,-0.396012157,10.53081226,0.798604548
0.859852042,-0.644865692,12.19143105,-1.043868899
0.869852042,-0.879362345,12.94756317,-1.029511929
0.879852042,-1.252642632,13.51705551,-0.546161771
0.889852042,-1.697707653,14.76610851,0.544965386
0.899852042,-1.788634896,15.27338696,0.87517488
0.909852042,-1.587637782,15.55095482,0.712462962
0.919852042,-1.156929731,15.77587986,-0.096311115
0.929852042,-0.687936485,15.87159252,-1.407577872
0.939852042,-0.022731815,15.8380928,-2.206780672
0.949852042,0.613758981,15.96251965,-2.149353027
0.959852042,1.149751306,16.73300934,-0.187238365
0.969852042,0.934397221,17.25942993,0.262612283
0.979852042,0.532403052,17.34557152,-0.62751776
0.989852042,0.245264322,16.82393646,-2.54656148
0.999852042,0.025124637,15.72323799,-5.011168957
1.009852042,0.235693038,14.28754425,-7.470990658
1.019852042,0.465404004,10.10488987,-9.040681839
1.029852042,0.001196411,10.55952644,-8.514261246
1.039852042,-0.161515534,9.473184586,-8.418548584
1.049852042,0.125623181,6.970292568,-8.873184204
1.059852042,1.379462242,5.046463013,-8.193622589
1.069852042,2.886940479,3.438486099,-4.905884743
1.079852042,4.585844517,0.275174618,11.96351528
1.089852042,4.585844517,0.275174618,11.96351528
1.099852042,4.585844517,0.275174618,11.96351528
1.109852042,4.585844517,0.275174618,11.96351528
1.119852042,5.260620594,0.906879783,35.43231964
1.129852042,5.385047436,2.222932339,26.26302338
1.139852042,5.743970871,3.041277647,19.63011932
1.149852042,5.743970871,3.041277647,19.63011932
1.159852042,6.370890141,0.538385093,24.2961235
1.169852042,6.17946434,0.614955425,27.09572601
1.179852042,5.46161747,0.792024314,25.43032074
1.189852042,4.413561344,0.854237676,20.34796524
1.199852042,3.55693078,1.42372942,14.96890068
1.209852042,3.55693078,1.42372942,14.96890068
1.219852042,3.55693078,1.42372942,14.96890068
1.229852042,0.876969516,2.419143677,12.37508011
1.239852042,1.613958836,2.993421078,14.01655674
1.249852042,2.930011272,3.409772158,14.29891014
1.259852042,3.920639992,3.845266104,13.12164116
1.269852042,4.092923164,4.438685894,11.40838051
1.279852042,2.6620152,5.103890896,8.556135178
1.289852042,1.805384636,5.079962254,8.259425163
1.299852042,1.140179992,5.060820103,8.752346992
1.309852042,0.723828852,5.146961689,9.42712307
1.319852042,0.652044177,5.204389095,9.814760208
1.329852042,0.829113066,5.233103275,9.752547264
1.339852042,0.829113066,5.233103275,9.752547264
1.349852042,0.829113066,5.233103275,9.752547264
1.359852042,0.829113066,5.233103275,9.752547264
1.369852042,0.092123672,5.563312531,6.594020844
1.379852042,0.561116934,5.462814331,6.158527374
1.389852042,1.743171334,5.242674351,5.397609711
1.399852042,2.815155745,5.027320385,4.909473896
1.409852042,2.815155745,5.027320385,4.909473896
1.419852042,1.728814363,5.477170944,4.722833633
1.429852042,0.384048045,5.821737289,4.866403103
1.439852042,-1.013360381,5.979663849,4.722833633
1.449852042,-2.233700037,6.089733601,4.445266247
1.459852042,-2.836691141,6.147161484,3.890131474
1.469852042,-2.439482689,6.673582554,2.703291416
1.479852042,-1.46321106,6.496513367,2.727219582
1.489852042,-0.530010223,6.644868374,3.488137245
1.499852042,-0.104087785,6.941578388,4.464408875
1.509852042,-0.084945202,6.975078106,5.177470207
1.519852042,-0.467796832,7.137789726,5.512465
1.529852042,-1.405783296,7.731209755,5.507679462
1.539852042,-1.405783296,7.731209755,5.507679462
1.549852042,-1.405783296,7.731209755,5.507679462
1.559852042,-2.243271112,8.291130066,4.641477585
1.569852042,-1.860419631,8.238488197,5.459823132
1.579852042,-1.491924882,8.267202377,6.641877651
1.589852042,-1.281356573,8.252845764,7.460222721
1.599852042,-1.836491346,9.042476654,6.833303452
1.609852042,-2.176272154,9.190832138,5.871388435
1.619852042,-2.559123755,9.214759827,4.832903385
1.629852042,-2.946761131,9.214759827,3.947559118
1.639852042,-2.941975355,9.004191399,3.593421459
1.649852042,-2.267199516,8.788837433,3.995415688
1.659852042,-0.898504913,8.678768158,5.359324455
1.669852042,-0.898504913,8.678768158,5.359324455
1.679852042,-0.898504913,8.678768158,5.359324455
1.689852042,-1.51106751,10.3776722,5.378467083
1.699852042,-2.061416626,10.87537861,4.612763882
1.709852042,-2.362912416,11.42572784,3.741776466
1.719852042,-2.420340061,11.95693493,2.789433002
1.729852042,-2.420340061,11.95693493,2.789433002
1.739852042,-2.831905603,13.14856052,3.612564087
1.749852042,-3.33439827,13.97647667,4.69411993
1.759852042,-3.564109325,14.89532089,5.373681545
1.769852042,-3.157329559,15.68495274,4.852046013
1.779852042,-2.003988981,16.24008751,3.291925669
1.789852042,-2.003988981,16.24008751,3.291925669
1.799852042,-2.003988981,16.24008751,3.291925669
1.809852042,-2.003988981,16.24008751,3.291925669
1.819852042,3.07836628,17.35035706,1.396810174
1.829852042,2.480160713,17.34557152,2.387438774
1.839852042,1.905883193,17.23071671,3.32063961
1.849852042,1.623530149,17.21157265,3.669991732
1.859852042,1.623530149,17.21157265,3.669991732
1.869852042,1.7670995,17.74756622,1.727019787
1.879852042,1.7670995,17.74756622,1.727019787
1.889852042,-0.285942316,18.19741631,1.14795661
1.899852042,-1.032503009,18.1591301,1.48295188
1.909852042,-1.913061738,18.29791451,1.813161373
1.919852042,-1.75034976,18.09691811,1.664806366
1.929852042,-1.582852125,17.70928001,0.516251504
1.939852042,-1.180858016,17.24028778,-0.474377096
1.949852042,-0.132801652,17.13978767,0.037686955
1.959852042,0.829113066,16.80479431,1.248455167
1.969852042,1.977667928,15.85723591,1.999801517
1.979852042,2.882154942,14.4693985,2.052443504
1.989852042,2.882154942,14.4693985,2.052443504
1.999852042,2.882154942,14.4693985,2.052443504
2.009852042,2.882154942,14.4693985,2.052443504
2.019852042,-1.290927768,2.715853691,5.569892883
2.029852042,-1.290927768,2.715853691,5.569892883
2.039852042,-0.467796832,-1.241874933,17.50050735
2.049852042,-0.467796832,-1.241874933,17.50050735
2.059852042,4.480560303,-10.83230782,18.96012878
2.069852042,7.241877556,-11.75593758,18.13221169
2.079852042,7.241877556,-11.75593758,18.13221169
2.089852042,10.35254669,-11.12901783,17.41436577
2.099852042,9.883553505,-9.970891953,18.27099609
2.109852042,9.883553505,-9.970891953,18.27099609
2.119852042,6.902096748,-6.812366009,27.83749962
2.129852042,6.811169624,-6.094519138,29.44547653
2.139852042,6.787241459,-6.108876228,28.32085037
2.149852042,7.466803074,-6.979863644,24.0951252
2.159852042,8.524430275,-7.05164814,18.68256187
2.169852042,8.524430275,-7.05164814,18.68256187
2.179852042,8.524430275,-7.05164814,18.68256187
2.189852042,6.480959892,-3.519842148,11.8773737
2.199852042,6.480959892,-3.519842148,11.8773737
2.209852042,4.896911621,-3.122633457,13.09292698
2.219852042,4.188635826,-3.041277647,12.46600819
2.229852042,3.738785267,-3.017349243,11.14038372
2.239852042,3.528217077,-2.711068153,9.412766457
2.249852042,3.446861029,-2.098505497,9.470193863
2.259852042,3.413361549,-1.299302697,9.594620705
2.269852042,3.628715515,-0.485742986,10.03011417
2.279852042,3.757927895,0.145962179,11.16431236
2.289852042,3.609572887,0.820738196,12.20758247
2.299852042,3.164507866,1.323230863,12.2171545
2.309852042,3.135794163,2.031506538,9.221340179
2.319852042,4.021138668,2.385644197,7.106084824
2.329852042,4.753342152,2.835494757,5.359324455
2.339852042,5.050052166,3.443271875,4.641477585
2.349852042,4.772484779,4.299902439,5.273182869
2.359852042,3.623929977,5.429314613,6.412166595
2.369852042,3.623929977,5.429314613,6.412166595
2.379852042,3.623929977,5.429314613,6.412166595
2.389852042,3.623929977,5.429314613,6.412166595
2.399852042,3.623929977,5.429314613,6.412166595
2.409852042,0.154337063,7.434499741,6.06760025
2.419852042,1.752742529,7.113861561,5.14397049
2.429852042,3.159722328,6.965506554,4.550550461
2.439852042,3.997210264,7.716853142,5.7038908
2.449852042,3.451646566,8.257631302,6.383452415
2.459852042,2.226521492,8.520841599,6.18245554
2.469852042,0.872183859,8.525627136,5.225326538
2.479852042,-0.08015956,8.750552177,4.119842529
2.489852042,-0.367298275,8.803194046,2.966501951
2.499852042,0.805184841,7.980063438,2.105085611
2.509852042,1.523031592,7.582854748,3.263211966
2.519852042,2.264806747,7.319644451,5.790032387
2.529852042,2.513660192,7.496713161,8.45085144
2.539852042,1.757528186,7.817351341,9.556335449
2.549852042,0.369691104,7.917850018,8.752346992
2.559852042,0.369691104,7.917850018,8.752346992
2.569852042,-1.458425403,9.62154007,4.698905468
2.579852042,-0.084945202,9.79860878,3.856631994
2.589852042,1.532602906,10.08574772,3.83270359
2.599852042,2.513660192,10.56431198,4.316053867
2.609852042,3.0448668,10.99501991,5.316253662
2.619852042,2.42273283,11.61715412,6.330810547
2.629852042,-1.271785259,13.66541004,7.953144073
2.639852042,-2.420340061,14.01476192,7.340581894
2.649852042,-2.511267424,14.45504189,4.933402061
2.659852042,-1.601994753,14.77567959,1.717448473
2.669852042,-1.601994753,14.77567959,1.717448473
2.679852042,2.561516523,14.38804245,-0.847657442
2.689852042,2.561516523,14.38804245,-0.847657442
2.699852042,2.561516523,14.38804245,-0.847657442
2.709852042,2.561516523,14.38804245,-0.847657442
2.719852042,1.91066885,14.00040531,10.23111153
2.729852042,1.91066885,14.00040531,10.23111153
2.739852042,0.345762879,13.18684578,7.06301403
2.749852042,1.106680512,12.45942783,3.971487284
2.759852042,1.106680512,12.45942783,3.971487284
2.769852042,4.6432724,10.62173939,2.148156643
2.779852042,5.633901119,10.54995537,4.459623337
2.789852042,6.007181168,10.42552853,6.402595043
2.799852042,5.605186939,10.25803089,7.331010342
2.809852042,4.32263422,10.052248,6.771090031
2.819852042,1.331605792,9.023334503,4.406980991
2.829852042,1.379462242,8.860622406,2.961716175
2.839852042,3.135794163,8.176275253,1.01874423
2.849852042,5.112265587,7.836493969,-0.23509483
2.859852042,6.681957245,8.300702095,0.473180681
2.869852042,8.021938324,8.630910873,1.545165181
2.879852042,8.471788406,8.760123253,1.023529887
2.889852042,8.155936241,8.621339798,-4.747958183
2.899852042,8.155936241,8.621339798,-4.747958183
2.909852042,9.95055294,8.583054543,-9.945169449
2.919852042,12.01795197,8.539983749,-10.67737293
2.929852042,14.18106365,9.071190834,-9.80638504
2.939852042,14.85583973,9.913464546,-8.140980721
2.949852042,12.9320097,10.11446095,-6.480361938
2.959852042,12.9320097,10.11446095,-6.480361938
2.969852042,12.87458229,6.855436802,-7.442276478
2.979852042,12.87458229,6.855436802,-7.442276478
2.989852042,12.87458229,6.855436802,-7.442276478
2.999852042,12.39601803,0.361316234,-1.412363529
3.009852042,12.60658646,-0.892522871,3.899702787
3.019852042,16.04267883,-4.515256405,12.69571877
3.029852042,17.52622986,-6.223731518,16.06481361
3.039852042,17.90908051,-7.812565804,18.5102787
3.049852042,17.32523155,-9.353543282,21.45344925
3.059852042,14.98026657,-9.808179855,23.98984146
3.069852042,12.26680565,-9.171689034,23.77927399
3.079852042,12.51565838,-9.760323524,18.79263115
3.089852042,13.42493153,-8.95154953,19.08934021
3.099852042,13.13300705,-7.075576782,20.85045815
3.109852042,12.66401386,-5.860022545,21.70708847
3.119852042,12.26202011,-5.544169903,21.34816551
3.129852042,11.17567825,-5.367101192,20.49153519
3.139852042,11.17567825,-5.367101192,20.49153519
3.149852042,11.17567825,-5.367101192,20.49153519
3.159852042,11.17567825,-5.367101192,20.49153519
3.169852042,11.17567825,-5.367101192,20.49153519
3.179852042,11.17567825,-5.367101192,20.49153519
3.189852042,5.093122959,-3.156133175,9.63290596
3.199852042,5.935396671,-2.926422119,10.0779705
3.209852042,5.935396671,-2.926422119,10.0779705
3.219852042,5.935396671,-2.926422119,10.0779705
3.229852042,7.227520943,0.069391854,12.67179012
3.239852042,7.323233604,0.681954443,10.53260708
3.249852042,7.763513088,1.131805062,8.340781212
3.259852042,8.433503151,1.39022994,6.665805817
3.269852042,10.4913311,1.466800332,5.134399414
3.279852042,11.47717381,1.395015597,5.775675774
3.289852042,12.31944752,1.715653777,7.192226887
3.299852042,12.60180092,2.328216314,8.498707771
3.309852042,12.1232357,3.175275564,8.335995674
3.319852042,10.69711399,3.940979004,6.684948444
3.329852042,8.935996056,4.706682205,4.301696777
3.339852042,8.935996056,4.706682205,4.301696777
3.349852042,4.729413986,6.21894598,-0.507876635
3.359852042,4.260420799,6.285944939,-0.273379982
3.369852042,4.035495281,6.23330307,1.444666624
3.379852042,4.035495281,6.23330307,1.444666624
3.389852042,3.820141315,6.611369133,5.857031822
3.399852042,2.236092806,7.424928665,7.704290867
3.409852042,1.623530149,7.640282631,6.684948444
3.419852042,1.484746456,7.697710514,4.957330227
3.429852042,1.322034478,7.970492363,3.038286448
3.439852042,1.489532113,8.10449028,1.593021631
3.449852042,1.489532113,8.10449028,1.593021631
3.459852042,2.427518606,7.668996811,0.487537622
3.469852042,2.427518606,7.668996811,0.487537622
3.479852042,3.308077335,8.343772888,4.517050743
3.489852042,4.609772682,8.444271088,5.83310318
3.499852042,5.906682491,8.420342445,5.254040241
3.509852042,6.629314899,8.382058144,3.196212769
3.519852042,6.701099873,8.386843681,0.793818891
3.529852042,5.365904808,7.712067604,-0.306879491
3.539852042,4.121636868,7.884350777,1.368096352
3.549852042,3.131008387,8.20498848,2.980858803
3.559852042,2.432304144,8.640482903,3.990629911
3.569852042,2.226521492,9.549755096,4.258625984
3.579852042,2.408375978,10.12881851,4.205984116
3.589852042,2.408375978,10.12881851,4.205984116
3.599852042,0.977468073,11.84207916,5.009972572
3.609852042,-0.056231331,12.66521072,5.565107346
3.619852042,-1.180858016,13.20120239,6.656234264
3.629852042,-1.180858016,13.20120239,6.656234264
3.639852042,-1.587637782,13.86162186,9.020342827
3.649852042,0.26440689,13.27298737,8.838488579
3.659852042,0.26440689,13.27298737,8.838488579
3.669852042,0.26440689,13.27298737,8.838488579
3.679852042,0.26440689,13.27298737,8.838488579
3.689852042,8.471788406,10.98544884,4.952544689
3.699852042,8.189435959,10.88973618,3.646063566
3.709852042,7.897511005,10.83230782,2.253440619
3.719852042,9.050851822,10.45902824,0.099900343
3.729852042,10.03190899,10.3154583,-0.474377096
3.739852042,10.86939716,10.10010433,-0.833300471
3.749852042,10.91725349,10.38724327,-0.718445003
3.759852042,10.41954613,10.82752228,-0.158524498
3.769852042,9.835697174,11.07637596,0.36311084
3.779852042,9.290133476,11.03809071,0.41096729
3.789852042,8.428717613,11.23430252,0.272183567
3.799852042,8.38564682,10.82752228,0.157328084
3.809852042,8.069794655,10.57388306,0.085543409
3.819852042,7.53858757,10.3154583,-0.225523531
3.829852042,7.18445015,9.870393753,-1.034297585
3.839852042,7.55294466,9.219545364,-2.781058073
3.849852042,10.64447117,7.740781307,-7.42313385
3.859852042,12.7310133,7.200003147,-8.715258598
3.869852042,12.7310133,7.200003147,-8.715258598
3.879852042,12.7310133,7.200003147,-8.715258598
3.889852042,14.52084446,5.19481802,-7.624131203
3.899852042,14.45863056,3.658625841,-6.638288021
3.909852042,13.91785336,2.304288149,-5.738586903
3.919852042,13.41057491,-1.036092162,-5.853442192
3.929852042,12.99422359,-2.888136864,-5.537590027
3.939852042,11.97488117,-3.936193228,-3.293122053
3.949852042,10.78804111,-4.759324074,0.789033294
3.959852042,10.50568771,-5.984449387,6.220740795
3.969852042,11.24746323,-7.410571575,10.71924686
3.979852042,13.68814182,-10.44467068,14.28455257
3.989852042,14.42034531,-11.54536915,14.56212044
3.999852042,14.61177158,-12.09093285,14.68654728
4.009852042,14.61177158,-12.09093285,14.68654728
4.019852042,15.65025616,-11.71765232,18.17049789
4.029852042,16.5403862,-11.10987568,20.11825371
4.039852042,16.5403862,-11.10987568,20.11825371
4.049852042,16.5403862,-11.10987568,20.11825371
4.059852042,18.82313919,-5.816951752,17.89292908
4.069852042,17.82293892,-5.012963295,18.38585091
4.079852042,15.83211136,-4.634897232,19.86940193
4.089852042,13.20000648,-4.280759811,20.77867317
4.099852042,10.51525879,-3.955335855,19.78326035
4.109852042,6.112465382,-3.342773199,15.01197147
4.119852042,4.638486862,-3.007778168,12.77228928
4.129852042,4.638486862,-3.007778168,12.77228928
4.139852042,3.547359467,-3.007778168,10.96810055
4.149852042,3.767499208,-3.151347399,11.31266689
4.159852042,4.341776848,-3.290131092,11.68116188
4.169852042,4.341776848,-3.290131092,11.68116188
4.179852042,4.341776848,-3.290131092,11.68116188
4.189852042,6.346961975,-1.275374413,9.522835732
4.199852042,6.466603279,-0.538385093,8.393424034
4.209852042,7.002595425,0.002392823,7.316653252
4.219852042,7.854440212,0.332602352,6.684948444
4.229852042,8.763712883,0.715453982,6.349953175
4.239852042,8.763712883,0.715453982,6.349953175
4.249852042,11.52981567,0.849452019,8.828917503
4.259852042,11.66381359,1.146162033,9.317052841
4.269852042,11.21874905,1.749153376,8.522636414
4.279852042,11.21874905,1.749153376,8.522636414
4.289852042,9.299705505,3.16570425,4.421338081
4.299852042,9.299705505,3.16570425,4.421338081
4.309852042,9.299705505,3.16570425,4.421338081
4.319852042,9.299705505,3.16570425,4.421338081
4.329852042,5.021338463,6.003592014,5.20618391
4.339852042,4.691128731,6.295516491,7.335795879
4.349852042,4.662415028,6.592226505,8.493922234
4.359852042,4.700700283,6.850651264,8.178069115
4.369852042,4.700700283,6.850651264,8.178069115
4.379852042,6.275177479,7.022934437,0.463609397
4.389852042,7.390232563,6.979863644,-1.493719578
4.399852042,7.596015453,7.281359196,-2.077568293
4.409852042,7.596015453,7.281359196,-2.077568293
4.419852042,5.370690346,8.334200859,3.674777269
4.429852042,5.370690346,8.334200859,3.674777269
4.429852042,4.916054249,7.635497093,9.082556725
4.449852042,5.643472195,7.314858913,3.808775425
4.459852042,5.954539299,7.712067604,0.832104087
4.469852042,5.772684574,8.31027317,-0.608375132
4.479852042,5.777470112,8.683553696,0.353539556
4.489852042,6.141179085,8.606983185,3.186641455
4.499852042,6.83509779,8.31027317,8.948558807
4.509852042,7.543373585,8.051848412,8.752346992
4.519852042,8.141578674,7.936992645,6.68016243
4.519852042,8.141578674,7.936992645,6.68016243
4.539852042,8.940781593,8.697910309,2.545365095
4.549852042,8.615358353,9.267401695,2.023729801
4.559852042,6.993024349,9.908679008,5.397609711
4.569852042,6.351747513,10.13838959,8.058428764
4.579852042,5.925825119,10.12881851,9.982257843
4.589852042,6.064609051,10.16231823,10.37468052
4.599852042,6.844669342,10.07617569,8.45085144
4.609852042,7.792226791,10.10488987,5.876173973
4.619852042,10.24247742,10.57388306,2.129014015
4.629852042,11.46281719,10.4350996,1.277169108
4.639852042,12.33380413,10.23410225,0.774676323
4.649852042,12.92243862,10.2149601,0.497108907
4.659852042,13.31007576,10.20060253,0.272183567
4.669852042,13.33878994,9.951749802,-0.182452723
4.679852042,13.26221943,9.616754532,-0.440877587
4.679852042,13.26221943,9.616754532,-0.440877587
4.699852042,10.98903847,9.736394882,0.138185501
4.709852042,10.05583763,9.6693964,0.181256309
4.719852042,8.945567131,9.789037704,0.324825674
4.729852042,7.978867054,10.01874828,0.439681172
4.739852042,7.543373585,10.40638542,0.927816987
4.749852042,8.940781593,10.23888779,3.650849104
4.759852042,10.63968563,8.941978455,3.569493294
4.769852042,12.04187965,7.712067604,1.071386337
4.779852042,12.04187965,7.712067604,1.071386337
4.789852042,13.1712923,6.769295216,-10.32802105
4.799852042,14.60220051,6.285944939,-13.78804207
4.809852042,16.46860123,3.50069952,-17.4442749
4.819852042,16.46860123,3.50069952,-17.4442749
4.829852042,12.45823097,3.773481369,-16.69292831
4.839852042,9.835697174,3.098705292,-12.49591827
4.849852042,8.739784241,2.677568436,-8.490332603
4.859852042,9.960124016,1.127019525,-6.102295876
4.869852042,11.12303638,-1.19880414,-5.379663467
4.879852042,13.42971706,-4.582255363,-7.202994347
4.889852042,13.42971706,-4.582255363,-7.202994347
4.899852042,13.42971706,-4.582255363,-7.202994347
4.909852042,18.26321793,-11.64586735,-1.852642894
4.919852042,21.53660011,-14.13440323,2.310868502
4.929852042,25.68575478,-17.21635818,7.359724045
4.939852042,29.24148941,-20.44666862,14.16012573
4.949852042,29.24148941,-20.44666862,14.16012573
4.959852042,29.24148941,-20.44666862,14.16012573
4.969852042,27.48994255,-18.84826469,32.43172073
4.979852042,25.75753975,-16.15873146,29.69911575
4.989852042,23.93899345,-12.5551405,27.25843811
4.999852042,20.81396866,-8.425128937,25.7509594
5.009852042,20.81396866,-8.425128937,25.7509594
5.019852042,4.968696117,-4.304687977,28.01457024
5.029852042,0.202193514,-4.749752998,26.21995163
5.039852042,-2.865405083,-5.50109911,22.66900444
5.049852042,-5.818148136,-4.711467743,18.33799362
5.059852042,-5.818148136,-4.711467743,18.33799362
5.069852042,-5.818148136,-4.711467743,18.33799362
5.079852042,-1.659422517,-2.806781054,10.80060291
5.089852042,1.073180914,-2.577069998,10.05882835
5.099852042,3.355933666,-2.160718918,9.211769104
5.109852042,4.944767952,-1.691725612,8.034500122
5.119852042,5.877968788,-1.064806104,6.842874527
5.129852042,6.509674072,-0.490528643,6.110671043
5.139852042,7.241877556,0.165104762,5.354538918
5.149852042,7.332805157,0.562313318,5.435894966
5.159852042,7.366304398,1.141376376,5.991029739
5.169852042,7.423732281,1.643869162,6.426523209
5.179852042,7.423732281,1.643869162,6.426523209
5.189852042,7.672585964,2.108076811,6.287739754
5.199852042,7.672585964,2.108076811,6.287739754
5.209852042,7.672585964,2.108076811,6.287739754
5.219852042,8.366504669,3.438486099,3.75134778
5.229852042,8.557929993,4.055834293,3.186641455
5.239852042,8.486145973,4.520041943,3.234498024
5.249852042,8.189435959,4.496113777,4.019343853
5.259852042,7.639086246,4.630111694,5.636891842
5.269852042,6.270391941,5.821737289,7.187440872
5.279852042,5.82532692,6.415157318,6.55095005
5.289852042,5.66740036,6.879364967,5.263611794
5.299852042,5.495117188,7.247859955,3.799204111
5.309852042,5.097908497,7.5924263,2.401795626
5.319852042,4.652843475,7.73599577,2.071586132
5.329852042,4.892126083,8.449056625,6.847660065
5.339852042,5.274977684,9.109476089,10.21675491
5.349852042,5.98803854,9.377471924,12.01137161
5.359852042,6.902096748,9.267401695,10.96331501
5.369852042,7.878368378,9.018548965,7.656434059
5.379852042,7.878368378,9.018548965,7.656434059
5.389852042,8.715856552,8.353343964,0.080757767
5.399852042,6.911668301,8.712266922,-2.905484915
5.399852042,6.911668301,8.712266922,-2.905484915
5.419852042,3.470789194,9.765109062,0.63589263
5.429852042,2.886940479,9.348757744,3.41635251
5.439852042,2.843869686,8.836693764,5.148756027
5.449852042,2.906083107,8.334200859,5.488536835
5.459852042,2.609373093,8.779266357,4.258625984
5.469852042,2.43708992,9.272188187,4.014558315
5.479852042,2.154736757,9.793823242,4.464408875
5.489852042,1.925025821,10.32502937,5.636891842
5.499852042,2.001596212,10.43031406,7.364510059
5.509852042,2.283949137,10.17188931,8.91505909
5.519852042,2.283949137,10.17188931,8.91505909
5.529852042,2.169093609,10.11924744,6.641877651
5.539852042,1.834098577,10.42552853,4.861617565
5.549852042,1.834098577,10.42552853,4.861617565
5.559852042,1.551745534,11.04766178,3.023929596
5.569852042,1.714457393,11.57886887,3.512065411
5.579852042,2.00638175,11.80857944,3.971487284
5.589852042,2.00638175,11.80857944,3.971487284
5.599852042,2.00638175,11.80857944,3.971487284
5.609852042,4.997410297,11.55015469,1.894517303
5.619852042,5.15533638,11.55972576,1.387238979
5.629852042,4.887340069,11.88993549,1.200598717
5.639852042,4.920839787,12.38285732,1.880160451
5.649852042,4.662415028,13.28734398,2.41136694
5.659852042,4.844269276,13.54576874,1.353739381
5.669852042,5.097908497,13.55533981,-0.35473597
5.679852042,5.437689304,13.7036953,-2.139781713
5.689852042,5.964110374,14.11526108,-3.283550978
5.699852042,6.294320107,14.71346664,-3.604189157
5.709852042,6.217749596,15.44567013,-2.924627542
5.719852042,5.452046394,16.91486359,1.334596872
5.729852042,5.145765305,17.37907028,3.378067255
5.739852042,5.145765305,17.37907028,3.378067255
5.749852042,5.901896954,17.15893173,0.784247637
5.759852042,5.901896954,17.15893173,0.784247637
5.769852042,6.959524632,17.11107445,-6.011368752
5.779852042,6.959524632,17.11107445,-6.011368752
5.789852042,6.959524632,17.11107445,-6.011368752
5.799852042,7.380661488,14.96232033,-8.676973343
5.809852042,7.031309128,13.2203455,-7.092924595
5.819852042,7.012166977,11.10987568,-6.231508255
5.829852042,6.820741177,8.894122124,-6.298507214
5.839852042,6.026323795,6.37687254,-6.265007973
5.849852042,1.968096614,3.036491871,-5.58066082
5.859852042,0.733400166,1.428515077,-3.623331785
5.869852042,1.585245013,-0.667597532,0.123828575
5.879852042,3.791427374,-3.419343472,4.052843571
5.889852042,6.696314335,-6.242874146,7.402794838
5.899852042,10.44347477,-8.453842163,10.6235342
5.909852042,10.44347477,-8.453842163,10.6235342
5.919852042,10.44347477,-8.453842163,10.6235342
5.929852042,10.44347477,-8.453842163,10.6235342
5.939852042,18.52643013,-12.75613785,38.54298782
5.949852042,14.30549049,-7.7838521,40.84488297
5.959852042,11.84088326,-3.117847919,39.19383621
5.969852042,13.39621735,-0.954736233,33.94398499
5.979852042,13.39621735,-0.954736233,33.94398499
5.989852042,18.10050774,-1.643869162,17.22772408
5.999852042,11.0943222,-1.313659668,16.59123421
6.009852042,3.757927895,-1.758724689,16.54816246
6.019852042,-1.984846354,-2.021935225,16.99322891
6.029852042,-5.440082073,-1.830509305,18.08914185
6.039852042,-6.05264473,-2.859423161,19.33340836
6.049852042,-4.506881237,-3.510270834,18.46720695
6.059852042,-4.506881237,-3.510270834,18.46720695
6.069852042,-4.506881237,-3.510270834,18.46720695
6.079852042,0.594616413,-2.605783939,10.35553837
6.089852042,1.843669891,-1.768295884,7.92443037
6.099852042,1.843669891,-1.768295884,7.92443037
6.109852042,1.843669891,-1.768295884,7.92443037
6.119852042,1.503889084,1.275374413,10.35553837
6.129852042,1.058824062,1.529013634,10.45125103
6.139852042,1.20717907,1.787438512,9.843474388
6.149852042,2.159522533,2.232503414,9.072985649
6.159852042,3.55693078,2.773281336,8.508278847
6.169852042,6.059823513,2.787638426,7.886145115
6.179852042,6.01675272,3.577269793,8.06799984
6.189852042,4.561916351,4.66839695,8.431708336
6.199852042,2.834298372,5.127819061,7.919644833
6.209852042,1.274178028,5.582455158,6.646663189
6.219852042,0.139980122,6.228517532,5.081757069
6.229852042,-0.324227482,7.38664341,3.957130432
6.239852042,-0.324227482,7.38664341,3.957130432
6.249852042,1.891526341,7.305287361,5.857031822
6.259852042,2.953939438,7.161718369,6.517450809
6.269852042,3.710071564,6.903293133,6.364310265
6.279852042,3.930211306,6.74536705,5.455037594
6.289852042,3.389433384,6.778866768,4.038486481
6.299852042,1.183250785,6.999006271,1.645663738
6.309852042,0.527617395,7.530212879,1.650449395
6.319852042,0.144765764,7.941778183,1.923231244
6.329852042,0.245264322,8.252845764,2.076371908
6.339852042,0.618544638,8.640482903,2.009372711
6.349852042,0.819541752,8.918049812,1.832303882
6.359852042,-0.678365231,10.07139015,1.392024517
6.369852042,-1.601994753,10.39681435,1.382453322
6.379852042,-1.826920033,10.27717304,1.559522152
6.389852042,-1.42971158,10.12403297,1.645663738
6.399852042,-0.893719256,10.00439167,1.746162295
6.409852042,-0.893719256,10.00439167,1.746162295
6.419852042,0.532403052,10.27717304,2.052443504
6.429852042,0.532403052,10.27717304,2.052443504
6.439852042,0.532403052,10.27717304,2.052443504
6.449852042,-1.223928809,11.45444202,2.28215456
6.459852042,-0.649651349,11.25823021,0.396610349
6.469852042,0.120837547,11.18166065,-1.086939692
6.479852042,0.781256616,11.08594704,-1.895713687
6.489852042,0.50368917,11.37787151,0.056829538
6.499852042,0.010767702,12.0095768,2.952144861
6.509852042,-0.333798766,12.24407387,5.531607628
6.519852042,-0.094516493,12.30628681,6.728019238
6.529852042,0.762113988,12.44028473,5.723033428
6.539852042,1.877169371,12.62692547,3.133999348
6.549852042,3.198007345,13.33998585,-0.397806764
6.559852042,3.298506021,13.51705551,0.171685025
6.569852042,3.298506021,13.51705551,0.171685025
6.579852042,2.848655462,14.77089405,4.158127785
6.589852042,2.695514679,14.97667694,5.411966801
6.599852042,2.465803623,15.00060558,5.210969448
6.609852042,2.288734913,14.93839169,3.78484726
6.619852042,3.470789194,14.64646721,0.224327117
6.629852042,4.533202648,14.42632771,-1.20179522
6.639852042,4.533202648,14.42632771,-1.20179522
6.649852042,6.112465382,14.76610851,-2.302493572
6.659852042,6.945167542,15.15374565,-2.072782516
6.669852042,7.088737011,15.42652798,-2.163709879
6.679852042,7.088737011,15.42652798,-2.163709879
6.689852042,4.997410297,16.48415565,-4.38424921
6.699852042,4.997410297,16.48415565,-4.38424921
6.709852042,3.384647608,17.8959198,-2.934198856
6.719852042,3.915854216,17.97727585,-1.910070658
6.729852042,4.504488468,17.65185356,-1.5224334
6.739852042,5.040481091,17.26421547,-1.211366415
6.749852042,5.499902725,15.62752438,-3.589832067
6.759852042,4.758127689,14.44546986,-6.738786697
6.769852042,4.179064751,13.00020504,-9.45224762
6.779852042,4.265206337,10.84666538,-11.26600742
6.789852042,4.715056896,7.869993687,-10.87837029
6.799852042,5.82532692,4.697110653,-7.56670332
6.809852042,6.275177479,-1.10309124,2.736790895
6.819852042,6.567101955,-4.98903513,9.479764938
6.829852042,7.653443336,-9.028120041,15.51446342
6.839852042,8.758927345,-13.38305664,18.3475666
6.849852042,10.51525879,-17.76670837,19.55354881
6.859852042,11.39581776,-20.39881325,24.22912407
6.869852042,12.40080357,-20.43709755,33.19742203
6.879852042,12.70708466,-13.28734398,47.51607513
6.889852042,10.29033375,-6.453442574,44.68297195
6.899852042,10.29033375,-6.453442574,44.68297195
6.909852042,10.29033375,-6.453442574,44.68297195
6.919852042,12.52044487,-0.629312336,24.42533493
6.929852042,10.17069244,-1.672582984,23.1906395
6.939852042,10.17069244,-1.672582984,23.1906395
6.949852042,-2.697907448,-4.328616142,17.00758553
6.959852042,-4.205385685,-5.257031441,14.23669624
6.969852042,-4.411168575,-5.544169903,13.44227982
6.979852042,-4.028316975,-5.237888813,13.99262905
6.989852042,-3.21954298,-5.266602516,14.65304756
6.999852042,0.029910283,-5.333601475,12.29372501
7.009852042,1.269392371,-4.089334011,10.2837534
7.019852042,2.470589399,-2.696711063,8.283353806
7.029852042,3.800998688,-1.80658114,6.292525291
7.039852042,4.667200565,-1.179661512,5.158327579
7.049852042,4.738985062,-0.30388847,5.574678421
7.059852042,4.179064751,0.86380899,7.441080093
7.069852042,3.619144201,1.811366796,11.31745243
7.079852042,4.155136585,2.385644197,10.77188969
7.089852042,4.777270317,2.65364027,8.685347557
7.099852042,5.222335339,3.093919754,6.527021885
7.109852042,4.911268711,4.132404804,4.727619171
7.119852042,3.844069481,5.146961689,3.339782238
7.129852042,1.216750264,6.496513367,2.71286273
7.139852042,-0.171086818,6.970292568,3.191427231
7.149852042,-1.04685986,7.41535759,3.555136204
7.159852042,-1.04685986,7.41535759,3.555136204
7.169852042,-1.04685986,7.41535759,3.555136204
7.179852042,1.714457393,7.372286797,2.459223509
7.189852042,2.446661234,7.625925541,1.899302959
7.199852042,1.853241086,8.070990562,2.114656925
7.209852042,1.853241086,8.070990562,2.114656925
7.219852042,1.853241086,8.070990562,2.114656925
7.229852042,-0.4869394,8.970691681,4.607978344
7.239852042,-0.209371984,9.46361351,4.272983074
7.249852042,0.489332229,9.870393753,3.086143017
7.259852042,0.489332229,9.870393753,3.086143017
7.269852042,0.489332229,9.870393753,3.086143017
7.279852042,1.738385677,9.334401131,2.004587173
7.289852042,0.637687206,9.229117393,3.435495138
7.299852042,-0.429511666,9.602396965,4.67976284
7.309852042,-1.271785259,10.02353382,4.842474937
7.319852042,-1.439282775,10.44467068,4.229912281
7.329852042,-0.089730851,10.55952644,3.942773581
7.339852042,0.532403052,10.62173939,4.80897522
7.349852042,0.963111103,10.58345413,6.507879257
7.359852042,1.010967612,10.50688457,8.178069115
7.369852042,0.805184841,10.76530933,8.948558807
7.379852042,0.412761897,10.861022,8.307282448
7.389852042,-0.070588268,11.3443718,4.320839405
7.399852042,-0.070588268,11.3443718,4.320839405
7.409852042,-0.070588268,11.3443718,4.320839405
7.419852042,-0.625723124,11.97129154,3.468994617
7.429852042,-1.329213023,12.05264759,5.545964718
7.439852042,-1.515853167,11.99522018,7.666005611
7.449852042,-1.391426325,12.37328625,8.642276764
7.459852042,-0.620937467,12.78963661,5.043471813
7.469852042,-0.620937467,12.78963661,5.043471813
7.479852042,-0.826720238,13.53141212,1.980658889
7.489852042,-1.113858938,13.65583897,2.119442701
7.499852042,-1.51106751,14.16311741,3.062214851
7.509852042,-1.386640668,14.61296749,4.076771736
7.519852042,0.666401088,15.16810226,5.086542606
7.529852042,0.83868432,15.47916985,4.67976284
7.539852042,0.805184841,15.36431408,3.468994617
7.549852042,1.010967612,15.46959877,1.985444546
7.559852042,1.867598057,15.3978138,0.439681172
7.569852042,3.001796007,15.08196068,-0.799800992
7.579852042,3.001796007,15.08196068,-0.799800992
7.589852042,3.001796007,15.08196068,-0.799800992
7.599852042,3.001796007,15.08196068,-0.799800992
7.609852042,5.093122959,15.38824272,1.439880967
7.619852042,4.375276089,15.45045567,0.793818891
7.629852042,3.815355778,15.54616833,-0.326022089
7.639852042,3.322434187,15.44088459,-1.551147223
7.649852042,3.322434187,15.44088459,-1.551147223
7.659852042,2.901297569,15.70888042,-2.84805727
7.669852042,2.901297569,15.70888042,-2.84805727
7.679852042,4.528416634,16.68993759,-0.105882399
7.689852042,5.021338463,15.92423439,-0.909870803
7.699852042,4.360919476,15.09631824,-2.503490686
7.709852042,2.53280282,11.9090786,-4.594817638
7.719852042,3.0448668,10.50209904,-1.69950223
7.729852042,3.245863914,9.79860878,1.707877159
7.739852042,2.910868645,7.05164814,3.483351469
7.749852042,3.087937593,4.295116425,6.426523209
7.759852042,1.934597135,2.179861546,8.536993027
7.769852042,0.431904495,-0.098105729,8.75713253
7.779852042,-1.080359459,-4.792823792,8.75713253
7.789852042,-1.080359459,-4.792823792,8.75713253
7.799852042,-0.496510684,-10.07617569,13.88734436
7.809852042,1.360319614,-12.48814106,18.61556244
7.819852042,2.303091764,-13.84247875,23.11406898
7.829852042,2.953939438,-14.23490238,26.717659
7.839852042,3.126222849,-11.28215885,31.35973549
7.849852042,3.126222849,-11.28215885,31.35973549
7.859852042,1.91066885,-6.491727829,38.94498444
7.869852042,4.96391058,-6.089733601,39.9068985
7.879852042,9.352347374,-6.333801746,35.50888824
7.889852042,10.95553875,-5.223531723,27.65564537
7.899852042,9.199206352,-2.79720974,19.28555298
7.909852042,2.374876499,-0.902094126,11.07338524
7.919852042,-0.53479588,-1.576870084,11.02552891
7.929852042,-2.075773716,-2.78285265,11.78166008
7.939852042,-2.066202402,-4.031906128,12.45643616
7.949852042,-1.391426325,-4.697110653,12.73878956
7.959852042,-1.195214868,-4.816751957,12.63350582
7.969852042,-0.214157626,-5.03689146,10.54696369
7.979852042,0.766899645,-4.127619267,9.288339615
7.989852042,1.709671736,-2.998206854,8.948558807
7.999852042,2.523231506,-2.084148407,8.771489143
8.009852042,2.853441,-1.24666059,8.58006382
8.019852042,2.714657307,-0.471386075,7.981858253
8.029852042,1.819741607,0.629312336,5.73260498
8.039852042,1.523031592,1.016949654,5.545964718
8.049852042,1.523031592,1.016949654,5.545964718
8.059852042,1.915454507,1.576870084,8.149355888
8.069852042,2.542374134,1.95015049,9.987043381
8.079852042,3.164507866,2.682354212,11.05902767
8.089852042,3.236292601,3.433700562,10.29332447
8.099852042,2.130808592,4.223331928,7.2065835
8.109852042,0.943968534,4.687539577,6.144170284
8.119852042,0.943968534,4.687539577,6.144170284
8.129852042,-0.3912265,4.658825874,6.522236347
8.139852042,-0.372083932,4.55354166,6.689733982
8.149852042,0.31226337,4.510470867,6.833303452
8.159852042,1.676172256,5.879165173,6.905087948
8.169852042,1.934597135,6.865008354,6.795018196
8.179852042,1.714457393,7.635497093,6.608377934
8.189852042,1.015753269,7.745566845,5.933601856
8.199852042,0.31226337,7.424928665,5.043471813
8.209852042,-0.07537391,7.070790768,4.009772778
8.219852042,0.063409798,6.86022234,3.100499868
8.229852042,0.063409798,6.86022234,3.100499868
8.239852042,0.063409798,6.86022234,3.100499868
8.249852042,0.063409798,6.86022234,3.100499868
8.259852042,-0.118444718,8.583054543,5.086542606
8.269852042,-0.372083932,8.602197647,5.852245808
8.279852042,-0.424726009,8.606983185,5.947958946
8.289852042,-0.424726009,8.606983185,5.947958946
8.299852042,-0.424726009,8.606983185,5.947958946
8.309852042,1.470389485,9.875179291,4.263411522
8.319852042,1.470389485,9.875179291,4.263411522
8.329852042,1.197607756,9.401400566,7.211369038
8.339852042,0.532403052,9.631111145,8.436494827
8.349852042,-0.046660043,10.13360405,8.694919586
8.359852042,0.259621263,10.84187984,6.412166595
8.369852042,0.259621263,10.84187984,6.412166595
8.379852042,-0.276371002,11.94257736,4.249054909
8.389852042,-0.826720238,12.34457207,4.856831551
8.399852042,-0.58265233,12.00479126,6.177670002
8.409852042,0.096909314,11.92822075,7.752147198
8.419852042,1.896311998,12.61735344,9.369695663
8.429852042,2.303091764,13.49791241,9.144769669
8.439852042,2.02073884,14.55554008,8.503493309
8.449852042,1.25503552,15.22074509,7.546364307
8.459852042,0.307477713,15.60838223,6.775875568
8.469852042,-0.362512618,15.93859196,6.603592396
8.479852042,-0.362512618,15.93859196,6.603592396
8.489852042,-0.362512618,15.93859196,6.603592396
8.499852042,-0.362512618,15.93859196,6.603592396
8.509852042,-0.362512618,15.93859196,6.603592396
8.519852042,-0.362512618,15.93859196,6.603592396
8.529852042,4.30827713,15.40259933,5.914459229
8.539852042,4.088137627,15.03410435,4.813760757
8.549852042,4.088137627,15.03410435,4.813760757
8.559852042,4.088137627,15.03410435,4.813760757
8.569852042,4.088137627,15.03410435,4.813760757
8.579852042,-0.424726009,12.73699474,3.512065411
8.589852042,-1.257428288,12.4498558,4.521836758
8.599852042,-1.726421595,11.97607708,5.14397049
8.609852042,-1.726421595,11.97607708,5.14397049
8.619852042,-1.726421595,11.97607708,5.14397049
8.629852042,-1.779063582,10.92802143,1.841875196
8.639852042,-1.453639746,10.70788097,0.296111792
8.649852042,-1.156929731,10.63131142,-1.072582722
8.659852042,-0.841077149,10.63131142,-2.168495417
8.669852042,-0.3912265,10.48295593,-3.053839922
8.679852042,-1.33399868,10.78445148,-3.991826296
8.689852042,-1.994417667,10.66002464,-4.058825493
8.699852042,-2.147558212,10.4350996,-2.967698336
8.709852042,-1.850848317,10.63609695,-0.713659346
8.719852042,-1.281356573,11.05244732,3.133999348
8.729852042,-1.745564103,11.45444202,7.096513748
8.739852042,-5.669793129,9.860821724,8.714061737
8.749852042,-6.985845566,8.559126854,7.484150887
8.759852042,-7.277770042,7.496713161,5.766104221
8.769852042,-7.277770042,7.496713161,5.766104221
8.779852042,-3.779463291,4.529613495,4.454837322
8.789852042,-1.348355532,2.787638426,5.708676815
8.799852042,0.982253671,1.074377418,7.350152969
8.809852042,0.982253671,1.074377418,7.350152969
8.819852042,3.652643681,-2.490928411,11.57587814
8.829852042,3.169293642,-3.6299119,11.12602711
8.839852042,1.872383714,-4.744967461,10.11625576
8.849852042,0.345762879,-5.687739372,10.2406826
8.859852042,-0.893719256,-6.903293133,11.79601765
8.869852042,-0.893719256,-6.903293133,11.79601765
8.879852042,-3.052045345,-10.717453,23.70270348
8.889852042,-3.870390654,-10.53081226,28.6510601
8.899852042,-4.516452789,-9.209974289,31.97708321
8.909852042,-4.348955154,-7.534998417,32.71407318
8.919852042,-3.071187973,-6.21894598,30.87638474
8.929852042,-0.597009242,-5.300102234,26.77987289
8.939852042,5.528616905,-4.204189301,16.01217079
8.949852042,5.911468506,-3.194418192,12.94935799
8.959852042,4.528416634,-1.916650891,11.92044449
8.969852042,2.9491539,-1.146162033,11.70987606
8.979852042,1.527817249,-1.29451704,11.70509052
8.989852042,0.532403052,-1.835294962,11.79601765
8.999852042,0.532403052,-1.835294962,11.79601765
9.009852042,0.532403052,-1.835294962,11.79601765
9.019852042,0.532403052,-1.835294962,11.79601765
9.029852042,-0.4869394,-3.716053486,17.39522171
9.039852042,0.388833672,-3.778266907,16.82094574
9.049852042,1.125823021,-3.582055569,15.14596939
9.059852042,1.125823021,-3.582055569,15.14596939
9.069852042,1.125823021,-3.582055569,15.14596939
9.079852042,1.810170293,-2.222932339,10.41296577
9.089852042,1.896311998,-1.964507341,10.26461124
9.099852042,1.881955028,-1.605584025,9.924830437
9.109852042,1.757528186,-1.079162955,9.407979965
9.119852042,1.642672777,-0.404387027,9.116056442
9.129852042,1.570888042,1.060020447,8.871988297
9.139852042,1.456032634,1.816152334,8.809774399
9.149852042,1.360319614,2.505285263,8.584849358
9.159852042,1.245464206,3.194418192,7.93878746
9.169852042,0.857826889,3.730410576,7.024729252
9.179852042,0.250049978,4.328616142,6.632306099
9.189852042,-1.52542448,5.850451469,6.201598167
9.199852042,-1.52542448,5.850451469,6.201598167
9.209852042,-1.52542448,5.850451469,6.201598167
9.219852042,-1.52542448,5.850451469,6.201598167
9.229852042,-0.056231331,6.506084919,6.962515831
9.239852042,0.446261436,6.597012043,6.278168201
9.249852042,0.537188709,6.87457943,4.861617565
9.259852042,0.537188709,6.87457943,4.861617565
9.269852042,1.269392371,8.214560509,3.12921381
9.279852042,1.652244091,8.563912392,3.32063961
9.289852042,1.795813441,8.592626572,3.78484726
9.299852042,1.709671736,8.74576664,4.574478626
9.309852042,1.259821177,9.119047165,5.598606586
9.319852042,1.259821177,9.119047165,5.598606586
9.329852042,1.259821177,9.119047165,5.598606586
9.339852042,1.259821177,9.119047165,5.598606586
9.349852042,0.125623181,12.82792187,8.45085144
9.359852042,1.44646132,13.14856052,7.101299286
9.369852042,3.59043026,12.62692547,5.469394207
9.379852042,5.676971912,12.04786205,4.220340729
9.389852042,5.676971912,12.04786205,4.220340729
9.399852042,5.676971912,12.04786205,4.220340729
9.409852042,4.518845558,14.35932827,4.234697819
9.419852042,2.752942562,14.73739433,4.148556232
9.429852042,1.345962763,15.18724537,3.923630953
9.439852042,0.451047063,15.70409489,3.660420418
9.449852042,0.451047063,15.70409489,3.660420418
9.459852042,2.618944407,15.66102409,3.392424345
9.469852042,3.872783422,15.50788403,4.110270977
9.479852042,5.035695076,15.15374565,4.727619171
9.489852042,5.959324837,15.0149622,5.388038158
9.499852042,6.404389858,14.94796276,5.679962635
9.509852042,5.117051125,14.99103355,4.325624943
9.519852042,4.504488468,14.42154217,2.703291416
9.529852042,4.078566074,13.88076401,1.439880967
9.539852042,4.207778454,13.31127262,0.92303133
9.549852042,4.944767952,12.41635704,0.856032312
9.559852042,5.84446907,11.44008541,0.961316526
9.569852042,6.562315941,10.9615202,1.382453322
9.579852042,6.902096748,10.39202881,2.162513494
9.589852042,6.686742783,10.47338486,1.794018745
9.599852042,6.610172749,10.4159565,0.817747116
9.609852042,6.313462734,10.07139015,-0.795015335
9.619852042,5.629115105,10.0331049,-2.627917528
9.629852042,5.078765869,10.23888779,-4.3986063
9.639852042,5.078765869,10.23888779,-4.3986063
9.649852042,5.078765869,10.23888779,-4.3986063
9.659852042,7.18445015,10.58824062,-7.715058327
9.669852042,8.739784241,10.3728857,-6.753143787
9.679852042,10.26640511,10.55952644,-4.2071805
9.689852042,10.78804111,10.9615202,-1.015154958
9.699852042,9.481559753,11.15773201,1.181456208
9.709852042,6.040680885,10.46859932,-0.005383851
9.719852042,4.853840828,9.46361351,-1.230509043
9.729852042,5.131408215,8.807980537,0.276969224
9.739852042,6.136393547,8.109275818,4.143770695
9.749852042,6.356533527,6.434299946,7.618149281
9.759852042,6.313462734,4.587040901,9.934401512
9.769852042,4.791627407,1.730010748,12.7627182
9.779852042,4.791627407,1.730010748,12.7627182
9.789852042,3.657429457,-0.279960245,17.49093437
9.799852042,3.719642878,-0.91166544,18.81655884
9.809852042,3.111865759,-1.337587833,18.11306953
9.819852042,2.867797852,-1.696511269,16.1892395
9.829852042,3.70050025,-2.328216314,14.34676647
9.839852042,6.217749596,-3.208775282,13.12164116
9.849852042,8.007580757,-3.672982693,14.45205021
9.859852042,9.012566566,-3.69212532,15.53839207
9.869852042,9.337990761,-3.414557934,16.0887413
9.879852042,9.462417603,-2.87856555,16.43809319
9.889852042,9.146564484,-2.122433662,16.92622948
9.899852042,9.146564484,-2.122433662,16.92622948
9.909852042,7.586444378,-1.155733347,16.06959915
9.919852042,6.839883327,-0.658026218,15.25125313
9.929852042,6.404389858,-0.423529595,14.054842
9.939852042,6.19382143,-0.318245411,13.08814144
9.949852042,5.916254044,-0.198604286,12.48993587
9.959852042,5.15533638,-0.011964113,11.19302654
9.969852042,5.15533638,-0.011964113,11.19302654
9.979852042,5.15533638,-0.011964113,11.19302654
9.989852042,4.518845558,-0.241675094,10.81017494
9.999852042,4.068994999,-0.212961212,11.00160027
10.00985204,3.595216036,-0.189032987,10.45603657
10.01985204,3.202793121,0.093320087,9.747760773
10.02985204,3.202793121,0.093320087,9.747760773
10.03985204,3.202793121,0.093320087,9.747760773
10.04985204,4.94955349,1.629512191,7.594220638
10.05985204,5.485546112,2.117648125,7.254439831
10.06985204,5.715256691,2.720639229,7.039085865
10.07985204,5.715256691,3.26141715,6.445665836
10.08985204,5.385047436,3.893122435,6.110671043
10.09985204,5.47597456,4.405186653,6.369095802
10.10985204,5.638686657,4.821537495,5.957530022
10.11985204,5.739185333,5.146961689,5.067399979
10.12985204,5.849255085,5.481956482,4.191627026
10.13985204,5.662614822,5.874379635,3.579064369
10.14985204,4.863411903,6.175875187,3.46420908
10.15985204,2.676372051,7.085147858,5.105685234
10.16985204,2.494517565,7.410571575,5.790032387
10.17985204,2.824727058,7.831708431,6.282954216
10.18985204,2.824727058,7.831708431,6.282954216
10.19985204,3.250649452,9.276973724,7.230511665
10.20985204,3.446861029,9.693324089,7.847859859
10.21985204,3.446861029,9.693324089,7.847859859
10.22985204,3.446861029,9.693324089,7.847859859
10.23985204,3.131008387,10.39202881,8.536993027
10.24985204,2.834298372,10.84666538,7.771289825
10.25985204,2.173879385,11.92822075,7.187440872
10.26985204,1.690529227,12.9379921,6.751947403
10.27985204,1.867598057,13.5409832,6.455237389
10.28985204,4.810770035,14.58425426,6.785446644
10.29985204,7.146164894,14.61296749,6.321238995
10.30985204,9.361918449,14.38325691,5.780461311
10.31985204,10.87896824,14.22533035,5.187041283
10.32985204,10.96510983,14.47418404,4.536193371
10.33985204,9.940981865,14.36411476,3.923630953
10.34985204,4.585844517,15.22074509,5.258825779
10.35985204,2.671586514,15.15853119,6.483951092
10.36985204,0.891326427,15.24467278,7.230511665
10.37985204,-0.434297323,15.36909962,7.345367432
10.38985204,-0.673579574,15.20160198,6.512664795
10.39985204,-0.17587246,14.7517519,5.244469166
10.40985204,0.489332229,14.47896957,4.048057556
10.41985204,0.489332229,14.47896957,4.048057556
10.42985204,0.489332229,14.47896957,4.048057556
10.43985204,0.489332229,14.47896957,4.048057556
10.44985204,2.968296528,11.80857944,0.942173898
10.45985204,2.719442844,11.01894855,0.224327117
10.46985204,2.475374937,10.3346014,-0.038883369
10.47985204,2.475374937,10.3346014,-0.038883369
10.48985204,4.715056896,9.899106979,1.794018745
10.49985204,5.514259815,10.16710377,2.363510609
10.50985204,5.954539299,10.40638542,1.91365993
10.51985204,5.992824078,10.48774147,0.310468733
10.52985204,6.083751678,10.46381378,-1.455434322
10.53985204,6.083751678,10.46381378,-1.455434322
10.54985204,6.083751678,10.46381378,-1.455434322
10.55985204,8.155936241,10.3728857,-4.173680782
10.56985204,10.03669453,10.28195858,-2.972483873
10.57985204,12.5060873,10.28674412,-2.077568293
10.58985204,14.79362583,10.02353382,-1.847857237
10.59985204,15.91825294,10.09531879,-2.044068813
10.60985204,15.91825294,10.09531879,-2.044068813
10.61985204,16.10489273,7.506284714,-3.082553864
10.62985204,15.0711937,6.812366009,-2.374278307
10.63985204,14.65962791,5.151747227,-1.321436286
10.64985204,14.72184086,2.768495798,0.2434697
10.65985204,14.49691582,0.342173636,1.48295188
10.66985204,12.31944752,-4.663611412,4.253840446
10.67985204,10.77368355,-6.788437843,7.345367432
10.68985204,9.43848896,-8.506484032,11.08295631
10.69985204,9.43848896,-8.506484032,11.08295631
10.70985204,7.466803074,-11.35872936,16.68216133
10.71985204,6.155536175,-12.21535969,18.82612991
10.72985204,4.648057938,-12.47378445,22.01815605
10.73985204,4.648057938,-12.47378445,22.01815605
10.74985204,4.648057938,-12.47378445,22.01815605
10.75985204,7.313662529,-8.606983185,29.51247597
10.76985204,11.31446171,-7.247859955,24.32962227
10.77985204,14.16192055,-5.367101192,17.85464478
10.78985204,14.45384502,-3.381058455,13.23649693
10.79985204,14.45384502,-3.381058455,13.23649693
10.80985204,8.280363083,-2.897708178,12.10229874
10.81985204,5.949753284,-3.6299119,12.71486092
10.82985204,3.858426571,-3.979264021,12.77228928
10.83985204,2.164308071,-3.974478483,12.65264797
10.84985204,1.235892892,-3.759124279,12.55214977
10.85985204,1.030110121,-3.481556892,12.32722378
10.86985204,2.21216464,-3.716053486,10.80538845
10.87985204,2.21216464,-3.716053486,10.80538845
10.88985204,3.403790236,-3.64426899,8.417351723
10.89985204,3.877569199,-3.256631613,7.680362701
10.90985204,4.399204254,-2.873780012,7.101299286
10.91985204,4.892126083,-2.486142635,6.627520561
10.92985204,5.504688263,-1.629512191,6.69451952
10.93985204,5.964110374,-1.064806104,7.316653252
10.94985204,6.567101955,-0.356530577,7.828717709
10.95985204,7.213163853,0.370887518,7.565506935
10.96985204,7.969295979,0.945164919,6.608377934
10.97985204,8.524430275,1.567298889,5.450251579
10.98985204,8.524430275,1.567298889,5.450251579
10.99985204,8.524430275,1.567298889,5.450251579
11.00985204,6.189035892,3.993621111,5.469394207
11.01985204,4.844269276,4.706682205,6.153741837
11.02985204,4.092923164,5.740381718,6.584449768
11.03985204,4.246063709,6.43908596,6.603592396
11.04985204,4.954339504,6.463014126,6.163312912
11.05985204,4.954339504,6.463014126,6.163312912
11.06985204,6.648457527,7.190432072,5.148756027
11.07985204,6.648457527,7.190432072,5.148756027
11.08985204,5.428118229,7.965706348,3.957130432
11.09985204,4.054637909,9.018548965,5.182255745
11.10985204,2.733799934,10.09531879,6.823731899
11.11985204,3.810570002,10.20538902,6.287739754
11.12985204,3.810570002,10.20538902,6.287739754
11.13985204,6.978667259,9.420542717,2.363510609
11.14985204,7.801798344,9.631111145,1.205384374
11.15985204,7.112665176,10.39681435,1.277169108
11.16985204,5.739185333,10.74138069,2.48793745
11.17985204,4.42313242,10.66959572,4.071985722
11.18985204,2.384447813,10.67438221,5.871388435
11.19985204,2.714657307,10.99501991,4.603192329
11.20985204,4.46620369,10.79402256,1.937588096
11.21985204,6.236892223,10.70309544,-0.67537421
11.22985204,7.093522549,11.07637596,-2.182852507
11.23985204,6.562315941,11.34915733,-2.048854351
11.24985204,6.562315941,11.34915733,-2.048854351
11.25985204,6.562315941,11.34915733,-2.048854351
11.26985204,6.562315941,11.34915733,-2.048854351
11.27985204,6.562315941,11.34915733,-2.048854351
11.28985204,3.293720484,11.77986622,3.492922783
11.29985204,4.164707661,11.74158096,0.82731843
11.30985204,4.96391058,11.73200989,-0.72323066
11.31985204,5.916254044,11.71765232,-0.16331014
11.32985204,6.256034851,11.56929779,1.353739381
11.33985204,6.509674072,11.37787151,2.918645382
11.34985204,6.753741741,11.33480072,3.813561201
11.35985204,7.356733322,11.25344467,3.315854073
11.36985204,8.256434441,11.02373409,1.937588096
11.37985204,9.984052658,10.84666538,-0.622732103
11.38985204,10.19462109,10.7605238,-0.938584685
11.39985204,9.739984512,10.97587776,-0.230309173
11.40985204,9.270991325,11.1003046,1.277169108
11.41985204,9.270991325,11.1003046,1.277169108
11.42985204,8.730213165,11.47837067,3.894917011
11.43985204,8.730213165,11.47837067,3.894917011
11.44985204,8.730213165,11.47837067,3.894917011
11.45985204,8.730213165,11.47837067,3.894917011
11.46985204,5.921039581,13.14377499,-1.828714728
11.47985204,5.279763222,13.41655636,-1.852642894
11.48985204,4.810770035,13.45962715,-1.216152072
11.49985204,4.700700283,13.35434341,0.166899383
11.50985204,4.700700283,13.35434341,0.166899383
11.51985204,4.700700283,13.35434341,0.166899383
11.52985204,7.079165936,11.13858986,3.339782238
11.53985204,7.265805721,9.46361351,2.363510609
11.54985204,6.844669342,8.33898735,1.013958573
11.55985204,6.150750637,7.5924263,-0.158524498
11.56985204,6.098108292,7.209574699,-1.096511006
11.57985204,7.23230648,5.812166214,-1.015154958
11.58985204,7.868797302,4.357329845,0.521037102
11.59985204,8.428717613,3.299702406,4.497908592
11.60985204,8.285148621,2.400001049,10.2406826
11.61985204,6.672386169,0.610169768,13.65284824
11.62985204,5.65304327,-1.117448211,15.52403545
11.63985204,5.14097929,-3.529413462,11.13559818
11.64985204,5.14097929,-3.529413462,11.13559818
11.65985204,5.14097929,-3.529413462,11.13559818
11.66985204,6.256034851,-3.357130051,6.436094761
11.67985204,6.256034851,-3.357130051,6.436094761
11.68985204,9.328418732,-5.970092297,12.32243824
11.69985204,9.328418732,-5.970092297,12.32243824
11.70985204,9.328418732,-5.970092297,12.32243824
11.71985204,10.59661484,-6.333801746,27.62214661
11.72985204,10.59661484,-6.333801746,27.62214661
11.73985204,11.33839035,-4.089334011,22.4010067
11.74985204,11.77866936,-2.993421078,18.20399666
11.75985204,11.95573807,-2.203789711,14.77268887
11.76985204,10.84546852,-1.768295884,12.69093323
11.77985204,9.342776299,-2.309073925,13.85863018
11.78985204,7.663014412,-2.864208698,15.51924992
11.79985204,6.141179085,-2.969492912,16.50030708
11.80985204,4.624129772,-3.486342669,16.14138412
11.81985204,3.906282902,-3.658625841,15.15554047
11.82985204,3.427718401,-4.060619831,11.46580791
11.83985204,3.79621315,-4.060619831,9.953543663
11.84985204,4.226921082,-3.897907972,9.235696793
11.85985204,4.604987144,-3.543770313,8.81456089
11.86985204,4.992624283,-2.945564747,8.991629601
11.87985204,5.294120312,-2.419143677,9.273982048
11.88985204,5.365904808,-2.04586339,9.503693581
11.89985204,5.365904808,-2.04586339,9.503693581
11.90985204,5.365904808,-2.04586339,9.503693581
11.91985204,5.365904808,-2.04586339,9.503693581
11.91985204,4.42313242,0.102891371,7.450651646
11.93985204,5.274977684,1.203589797,5.287539959
11.94985204,5.394618511,1.911865234,4.914259434
11.95985204,5.394618511,1.911865234,4.914259434
11.96985204,3.006581545,3.73998189,4.579264164
11.97985204,3.006581545,3.73998189,4.579264164
11.98985204,1.920240164,4.204189301,2.516651154
11.99985204,1.8628124,4.15633297,1.435095429
12.00985204,1.762313843,5.635097504,1.463809252
12.01985204,0.857826889,7.377072334,-0.105882399
12.02985204,-0.510867655,7.357929707,-0.172881439
12.03985204,-1.922633052,7.645068169,1.593021631
12.04985204,-3.028116941,8.0757761,3.521636724
12.05985204,-3.329612732,7.92742157,4.756333351
12.06985204,-2.870190859,7.941778183,5.593821049
12.07985204,-1.759921074,8.377271652,4.82333231
12.08985204,0.55154562,7.731209755,7.756932735
12.09985204,0.55154562,7.731209755,7.756932735
12.10985204,0.55154562,7.731209755,7.756932735
12.11985204,-0.099302143,9.090332985,8.063214302
12.12985204,-0.769292474,9.851250648,7.74736166
12.13985204,-0.687936485,9.966106415,6.785446644
12.14985204,-0.687936485,9.966106415,6.785446644
12.15985204,1.221535921,10.83709335,2.631506681
12.16985204,1.642672777,11.22951698,1.980658889
12.17985204,1.365105271,11.59322548,2.129014015
12.18985204,0.431904495,11.69372463,3.000001431
12.19985204,-0.654437006,11.40658569,4.115056515
12.20985204,-1.51106751,11.00459099,5.182255745
12.21985204,-1.51106751,11.00459099,5.182255745
12.22985204,-1.51106751,11.00459099,5.182255745
12.23985204,-1.51106751,11.00459099,5.182255745
12.24985204,0.187836573,13.11506081,10.60439205
12.25985204,1.077966571,13.37348557,12.07837009
12.26985204,2.121237278,13.79940796,11.92044449
12.27985204,2.121237278,13.79940796,11.92044449
12.28985204,5.830112457,14.66082478,6.857231617
12.29985204,6.978667259,14.78046513,5.383252621
12.30985204,8.007580757,14.64168167,4.603192329
12.31985204,9.136993408,14.45504189,4.584050179
12.32985204,10.24247742,14.1870451,5.038686275
12.33985204,10.91725349,13.81376553,5.555535793
12.34985204,10.63490009,13.37348557,6.56530714
12.35985204,10.09412193,13.1772747,6.622735023
12.36985204,9.414560318,12.8757782,6.034100533
12.37985204,8.658429146,12.62213898,4.852046013
12.38985204,7.840083599,12.32542896,3.722633839
12.39985204,7.031309128,11.89472103,2.851646423
12.40985204,5.973681927,11.21994495,2.636292458
12.41985204,5.973681927,11.21994495,2.636292458
12.42985204,5.973681927,11.21994495,2.636292458
12.43985204,10.61575794,9.602396965,1.487737536
12.44985204,12.50130177,9.248259544,0.913460016
12.45985204,13.67378521,8.874979019,0.162113741
12.46985204,13.67378521,8.874979019,0.162113741
12.47985204,13.67378521,8.874979019,0.162113741
12.48985204,13.67378521,8.874979019,0.162113741
12.49985204,12.74058437,6.611369133,-0.938584685
12.50985204,12.64487171,5.697310925,-0.833300471
12.51985204,12.64487171,5.697310925,-0.833300471
12.52985204,12.18066406,3.467200041,-0.550947428
12.53985204,12.18066406,3.467200041,-0.550947428
12.54985204,12.18066406,3.467200041,-0.550947428
12.55985204,12.18066406,3.467200041,-0.550947428
12.56985204,11.76431274,-3.175275564,5.301896572
12.57985204,12.4486599,-4.486542225,7.890930653
12.58985204,12.64487171,-5.615954876,10.92502975
12.59985204,12.64487171,-5.615954876,10.92502975
12.60985204,12.64487171,-5.615954876,10.92502975
12.61985204,12.94636726,-9.645467758,21.38644981
12.62985204,12.85065365,-9.588040352,21.71187401
12.63985204,13.01336575,-9.310472488,20.59203339
12.64985204,14.02792263,-9.12861824,18.37627983
12.65985204,15.32961845,-8.549555779,15.07896996
12.66985204,15.32961845,-8.549555779,15.07896996
12.67985204,15.32961845,-8.549555779,15.07896996
12.68985204,13.53978729,-7.180860519,10.63310528
12.69985204,10.58704376,-7.223931789,12.07358456
12.70985204,7.514659405,-7.338787079,13.40399456
12.71985204,4.973481655,-7.209574699,14.22233963
12.72985204,0.474975288,-6.118447304,14.22712517
12.73985204,0.474975288,-6.118447304,14.22712517
12.74985204,0.474975288,-6.118447304,14.22712517
12.75985204,0.474975288,-6.118447304,14.22712517
12.76985204,-1.46321106,-4.0127635,12.48993587
12.77985204,-0.692722142,-3.605983734,11.97308636
12.78985204,0.307477713,-3.457628727,11.60459137
12.79985204,2.595016241,-3.151347399,10.57089233
12.80985204,3.676572084,-2.983849764,9.005986214
12.81985204,4.753342152,-2.696711063,7.374081135
12.82985204,5.595615864,-2.112862349,6.05324316
12.83985204,6.20817852,-1.591227055,5.435894966
12.84985204,6.634100914,-1.155733347,5.770890236
12.85985204,7.36151886,0.093320087,8.115856171
12.86985204,7.706085205,0.576670229,8.350353241
12.87985204,8.146365166,0.940379322,7.0151577
12.88985204,8.624929428,1.505085468,5.062614441
12.89985204,8.624929428,1.505085468,5.062614441
12.89985204,8.663214684,2.395215511,3.598206997
12.91985204,8.663214684,2.395215511,3.598206997
12.92985204,8.663214684,2.395215511,3.598206997
12.93985204,4.51406002,5.788238049,9.307481766
12.94985204,3.997210264,6.01316309,10.24546814
12.95985204,4.064209461,6.147161484,9.460622787
12.96985204,4.46620369,6.750152588,7.532007694
12.97985204,4.767699242,7.860422611,5.780461311
12.98985204,4.767699242,7.860422611,5.780461311
12.99985204,4.767699242,7.860422611,5.780461311
13.00985204,8.199007034,7.807780266,3.234498024
13.01985204,8.452646255,7.549355507,3.296711445
13.02985204,8.160721779,7.807780266,3.22492671
13.03985204,7.337590694,8.396414757,2.775076151
13.04985204,4.456632137,8.913264275,2.497508526
13.05985204,4.456632137,8.913264275,2.497508526
13.06985204,4.456632137,8.913264275,2.497508526
13.07985204,4.456632137,8.913264275,2.497508526
13.08985204,-0.329013109,8.831908226,6.469594002
13.09985204,0.13519448,8.669196129,7.07737112
13.10985204,1.336391449,8.664410591,7.670791149
13.11985204,1.336391449,8.664410591,7.670791149
13.12985204,1.336391449,8.664410591,7.670791149
13.13985204,3.858426571,11.05723381,5.024329185
13.14985204,3.858426571,11.05723381,5.024329185
13.15985204,5.954539299,11.88514996,0.626321316
13.16985204,7.117451191,12.82313633,-1.259222865
13.17985204,7.117451191,12.82313633,-1.259222865
13.18985204,7.117451191,12.82313633,-1.259222865
13.19985204,8.132007599,15.16810226,3.602992773
13.20985204,8.132007599,15.16810226,3.602992773
13.21985204,7.619943619,16.03430367,10.03489971
13.22985204,7.323233604,16.30708694,11.42752266
13.23985204,7.414160728,16.33580017,11.26002502
13.24985204,7.414160728,16.33580017,11.26002502
13.25985204,7.414160728,16.33580017,11.26002502
13.26985204,7.414160728,16.33580017,11.26002502
13.27985204,7.414160728,16.33580017,11.26002502
13.28985204,11.69252777,14.23490238,5.775675774
13.29985204,11.34317589,13.93340588,5.301896572
13.30985204,11.34317589,13.93340588,5.301896572
13.31985204,11.34317589,13.93340588,5.301896572
13.32985204,7.198806763,12.47378445,4.349553585
13.33985204,6.806384087,12.04307652,4.411766529
13.34985204,6.897311211,11.53101254,4.339982033
13.35985204,7.256234646,10.77488041,4.229912281
13.36985204,7.844869137,10.21017456,3.564707518
13.37985204,8.873783112,8.755337715,0.607178748
13.38985204,8.457431793,8.391629219,-0.488734037
13.39985204,7.964509964,8.520841599,-1.977069736
13.40985204,7.964509964,8.520841599,-1.977069736
13.41985204,6.993024349,7.25743103,-4.326821327
13.42985204,6.495316982,6.73100996,-4.73360157
13.43985204,6.495316982,6.73100996,-4.73360157
13.44985204,5.705685616,5.606383324,-2.876770973
13.45985204,6.591030121,4.797609329,-2.044068813
13.46985204,7.931010723,3.749552965,-1.369292736
13.47985204,9.251849174,2.634497643,-0.656231582
13.48985204,10.33819008,1.524227977,0.214755833
13.49985204,11.09910774,-0.533599436,1.712662816
13.50985204,11.09910774,-1.529013634,2.531008244
13.51985204,11.37667561,-2.639283419,3.550350666
13.52985204,11.89831066,-3.754338741,4.947759151
13.53985204,12.32423306,-4.917250633,6.507879257
13.54985204,13.22871971,-6.295516491,8.603992462
13.55985204,14.62134266,-7.980063438,11.47537899
13.56985204,14.62134266,-7.980063438,11.47537899
13.57985204,14.62134266,-7.980063438,11.47537899
13.58985204,15.81296825,-9.095118523,25.82752991
13.59985204,15.2913332,-8.137989998,27.51207733
13.60985204,14.93240929,-6.932007313,26.00459862
13.61985204,15.1286211,-6.089733601,21.80280113
13.62985204,15.1286211,-6.089733601,21.80280113
13.63985204,15.1286211,-6.089733601,21.80280113
13.64985204,15.1286211,-6.089733601,21.80280113
13.65985204,7.749155998,-3.270988464,8.441280365
13.66985204,5.385047436,-3.227917671,10.20239735
13.67985204,3.633501291,-3.127419233,12.53779221
13.68985204,2.51844573,-3.060420275,14.80618858
13.69985204,1.953739643,-2.562713146,17.01237106
13.70985204,2.32701993,-2.452643156,16.97887039
13.71985204,2.958725214,-2.438286304,16.11745453
13.72985204,3.695714474,-2.400001049,14.32762337
13.73985204,4.442275047,-2.036292076,12.48515034
13.74985204,5.059623718,-1.42372942,11.02552891
13.75985204,6.035895348,-0.562313318,8.800203323
13.76985204,6.299105644,-0.279960245,8.268997192
13.77985204,6.394818306,-0.117248312,8.168498039
13.78985204,6.394818306,-0.117248312,8.168498039
13.79985204,6.093322754,0.658026218,8.900702477
13.80985204,6.117250919,1.079162955,9.0921278
13.81985204,6.150750637,1.600798368,9.388837814
13.82985204,6.150750637,1.600798368,9.388837814
13.83985204,8.17986393,2.883351326,7.039085865
13.84985204,9.457631111,2.983849764,5.019543648
13.85985204,9.457631111,2.983849764,5.019543648
13.86985204,10.46261692,4.261617184,2.47358036
13.87985204,9.725627899,5.242674351,2.985644341
13.88985204,9.725627899,5.242674351,2.985644341
13.89985204,5.112265587,7.893921852,6.795018196
13.90985204,4.289134502,7.989634991,5.986244202
13.91985204,4.236492634,7.568498135,4.191627026
13.92985204,4.729413986,7.037291527,2.133799553
13.93985204,5.590830326,6.391229153,0.722034216
13.94985204,4.557130814,7.884350777,1.545165181
13.95985204,3.068794966,8.817551613,3.813561201
13.96985204,1.762313843,9.219545364,5.976672649
13.97985204,0.862612545,9.253045082,7.441080093
13.98985204,0.518046081,9.2865448,6.570092678
13.99985204,0.867398202,8.946763992,3.622135162
14.00985204,1.68574357,8.549555779,0.296111792
14.01985204,1.68574357,8.549555779,0.296111792
14.02985204,1.68574357,8.549555779,0.296111792
14.03985204,1.68574357,8.549555779,0.296111792
14.04985204,2.968296528,10.68395329,0.832104087
14.05985204,3.848855257,11.01416302,2.947359324
14.06985204,5.456831932,10.92802143,3.823132277
14.07985204,5.456831932,10.92802143,3.823132277
14.08985204,9.840482712,11.72243786,2.435295343
14.09985204,10.00798035,12.32542896,2.416152716
14.10985204,9.591629982,13.00977707,3.41635251
14.11985204,9.218349457,13.73240948,5.110470772
14.12985204,9.170493126,14.33540058,6.541378975
14.13985204,9.012566566,14.89053535,7.244868755
14.14985204,8.701499939,15.60359669,5.904888153
14.15985204,8.701499939,15.60359669,5.904888153
14.15985204,9.017352104,15.70888042,4.210769653
14.17985204,10.76889801,15.15374565,2.18644166
14.18985204,11.67817116,14.66082478,2.583650351
14.19985204,12.46780205,14.02911949,3.44985199
14.20985204,13.92263889,12.72742367,4.593621254
14.21985204,14.20977688,12.22014523,3.703491211
14.22985204,13.92263889,11.71765232,1.832303882
14.23985204,13.11865044,11.28694439,-0.206380948
14.24985204,11.99402332,10.99980545,-1.565504193
14.25985204,10.77847004,10.89452171,-1.69950223
14.26985204,9.677771568,10.93280697,-0.838086128
14.27985204,9.677771568,10.93280697,-0.838086128
14.28985204,9.677771568,10.93280697,-0.838086128
14.29985204,9.40977478,9.377471924,2.28215456
14.30985204,9.40977478,9.377471924,2.28215456
14.31985204,10.26161957,7.965706348,-0.416949332
14.32985204,10.72104168,7.616354465,-2.493919373
14.33985204,10.72104168,7.616354465,-2.493919373
14.34985204,11.40060329,6.295516491,-6.676573277
14.35985204,11.28096199,5.544169903,-6.614359856
14.36985204,11.31924725,4.625326157,-5.729015827
14.37985204,11.23310566,3.663411379,-4.322035789
14.38985204,11.15174961,2.605783939,-3.101696253
14.39985204,10.63968563,-0.02632105,-1.110867858
14.40985204,10.04148006,-1.093519926,-0.129810631
14.41985204,9.620343208,-2.151147604,1.234098315
14.42985204,9.237491608,-3.701696634,3.234498024
14.43985204,8.854640007,-5.046463013,5.880959988
14.44985204,8.366504669,-6.017949104,9.173483849
14.45985204,7.926225185,-6.903293133,12.65264797
14.46985204,9.376275063,-9.391828537,18.84048653
14.47985204,10.00319481,-9.884750366,21.76930237
14.48985204,10.05105114,-9.588040352,24.79383087
14.49985204,10.05105114,-9.588040352,24.79383087
14.50985204,10.05105114,-9.588040352,24.79383087
14.51985204,11.85045433,-6.520441532,30.44089127
14.52985204,17.60758591,-5.137390137,24.10948181
14.53985204,19.64148521,-4.802394867,18.32842255
14.54985204,18.88056755,-3.558127165,13.11207008
14.55985204,15.81775379,-2.347358942,8.895915985
14.56985204,12.7310133,-1.730010748,5.536393166
14.57985204,9.902696609,-2.591426849,3.306282759
14.58985204,6.385247231,-3.495913982,3.713062525
14.59985204,-0.549152792,-4.352544308,8.541778564
14.60985204,-2.784049034,-4.17069006,11.02074242
14.61985204,-3.62153697,-4.02712059,13.24128246
14.62985204,-3.147758245,-4.084548473,15.02632809
14.63985204,-1.759921074,-3.826123476,16.61994743
14.64985204,-0.056231331,-3.438486099,17.40000725
14.65985204,-0.056231331,-3.438486099,17.40000725
14.66985204,-0.056231331,-3.438486099,17.40000725
14.67985204,-0.056231331,-3.438486099,17.40000725
14.68985204,-0.056231331,-3.438486099,17.40000725
14.69985204,5.672185898,-1.021735311,6.148955822
14.70985204,5.672185898,-1.021735311,6.148955822
14.71985204,8.8977108,0.337387979,3.373281717
14.72985204,11.99880886,0.949950576,2.157727718
14.73985204,12.11845016,1.696511269,2.784647465
14.74985204,11.1948204,2.447857618,4.071985722
14.75985204,9.629914284,3.007778168,5.053043365
14.76985204,7.811369419,3.50069952,5.679962635
14.77985204,5.633901119,4.237689018,6.019743443
14.78985204,1.891526341,6.075376511,4.971687317
14.79985204,1.470389485,6.850651264,4.272983074
14.80985204,2.413161755,6.640082836,3.86620307
14.81985204,3.867997885,6.108876228,3.741776466
14.82985204,5.179264545,6.084948063,4.024129391
14.83985204,6.136393547,5.965306759,4.512265205
14.84985204,6.332605362,6.075376511,4.952544689
14.85985204,6.332605362,6.075376511,4.952544689
14.86985204,6.332605362,6.075376511,4.952544689
14.87985204,6.332605362,6.075376511,4.952544689
14.88985204,4.648057938,9.047262192,3.220141172
14.89985204,5.720042706,8.846264839,3.244069338
14.90985204,6.01675272,8.92283535,4.689334393
14.91985204,6.01675272,8.92283535,4.689334393
14.92985204,6.01675272,8.92283535,4.689334393
14.93985204,1.939382792,11.94257736,12.34636688
14.94985204,3.49471736,11.91386414,9.613762856
14.95985204,3.49471736,11.91386414,9.613762856
14.96985204,7.892725468,11.6841526,4.138985157
14.97985204,7.892725468,11.6841526,4.138985157
14.98985204,7.892725468,11.6841526,4.138985157
14.99985204,7.892725468,11.6841526,4.138985157
15.00985204,7.892725468,11.6841526,4.138985157
15.01985204,5.131408215,11.70329571,6.273382664
15.02985204,4.035495281,11.18644619,6.211169243
15.03985204,3.767499208,10.53081226,4.966901779
15.04985204,3.729214191,9.985248566,2.511865616
15.05985204,3.729214191,9.985248566,2.511865616
15.06985204,3.748356581,10.83709335,3.492922783
15.07985204,4.614558697,10.87537861,4.622334957
15.08985204,5.734399319,11.06680489,5.617749214
15.09985204,5.734399319,11.06680489,5.617749214
15.10985204,5.734399319,11.06680489,5.617749214
15.11985204,5.734399319,11.06680489,5.617749214
15.12985204,5.734399319,11.06680489,5.617749214
15.13985204,8.103293419,11.05244732,-0.67537421
15.14985204,7.840083599,10.85145092,0.506680191
15.15985204,7.194021225,11.02373409,2.172084808
15.16985204,6.571887493,11.18166065,3.483351469
15.17985204,6.571887493,11.18166065,3.483351469
15.18985204,4.753342152,11.53101254,3.067000389
15.19985204,4.269991875,11.526227,1.86580348
15.20985204,4.269991875,11.526227,1.86580348
15.21985204,4.255635262,11.15773201,-0.053240303
15.22985204,4.447061062,11.10509014,-0.11545369
15.23985204,4.447061062,11.10509014,-0.11545369
15.24985204,5.566901684,11.35872936,3.349353552
15.25985204,5.538187981,11.56451225,4.277768612
15.26985204,5.006981373,11.63629627,3.842274904
15.27985204,4.51406002,11.8660078,2.435295343
15.28985204,4.791627407,12.26321602,-0.053240303
15.29985204,6.241677761,12.39721394,-2.666202545
15.30985204,6.241677761,12.39721394,-2.666202545
15.31985204,6.241677761,12.39721394,-2.666202545
15.32985204,6.241677761,12.39721394,-2.666202545
15.33985204,7.883154392,12.50249863,5.660820007
15.34985204,6.394818306,11.61236858,7.307082176
15.35985204,5.538187981,10.57388306,7.096513748
15.36985204,5.538187981,10.57388306,7.096513748
15.37985204,5.538187981,10.57388306,7.096513748
15.38985204,4.609772682,7.267002583,2.435295343
15.39985204,4.48534584,6.606583118,2.37786746
15.40985204,4.207778454,5.989234924,2.593221426
15.41985204,3.719642878,5.601597786,2.143370867
15.42985204,3.719642878,5.601597786,2.143370867
15.43985204,5.318048477,2.347358942,-0.598803878
15.44985204,5.452046394,1.34237349,0.176470667
15.45985204,5.365904808,0.241675094,2.373081923
15.46985204,5.720042706,-1.060020447,5.354538918
15.47985204,6.471388817,-2.376072884,8.077570915
15.48985204,7.380661488,-3.620340586,9.699904442
15.49985204,9.998409271,-5.726024628,10.70967579
15.50985204,9.998409271,-5.726024628,10.70967579
15.51985204,9.998409271,-5.726024628,10.70967579
15.52985204,9.845269203,-6.42472887,17.2420826
15.53985204,9.687342644,-5.826523304,21.50130653
15.54985204,10.12283611,-4.917250633,25.25325203
15.55985204,12.82194042,-2.553141832,27.2823658
15.56985204,14.52084446,-1.514656782,24.39183617
15.57985204,14.6452713,-0.801595569,21.271595
15.58985204,12.08016491,0.055034921,19.32383728
15.59985204,8.467002869,0.236889437,18.39542198
15.60985204,5.002195835,-0.064606212,18.18485451
15.61985204,2.164308071,-0.366101861,18.13221169
15.62985204,-0.08015956,-1.251446247,17.23729706
15.63985204,0.350548506,-1.758724689,16.87358665
15.64985204,1.436890006,-2.155933142,16.83530235
15.65985204,1.436890006,-2.155933142,16.83530235
15.66985204,3.882354736,-2.835494757,15.88295841
15.67985204,3.882354736,-2.835494757,15.88295841
15.68985204,3.882354736,-2.835494757,15.88295841
15.69985204,3.882354736,-2.835494757,15.88295841
15.70985204,3.882354736,-2.835494757,15.88295841
15.71985204,6.978667259,-1.194018483,8.603992462
15.72985204,7.304090977,-0.701097012,8.800203323
15.73985204,7.418946743,0.031106694,8.484351158
15.74985204,7.127022266,0.672383189,7.493722439
15.75985204,7.127022266,0.672383189,7.493722439
15.76985204,6.189035892,2.400001049,3.023929596
15.77985204,6.026323795,3.026920557,2.176870346
15.78985204,5.734399319,3.625126362,1.94715941
15.79985204,5.121836662,4.366901398,2.765504837
15.80985204,3.992424488,5.118247509,3.689134359
15.81985204,1.518245935,5.989234924,4.368695736
15.82985204,0.565902531,6.352943897,3.923630953
15.83985204,0.273978204,6.74536705,2.832503796
15.84985204,0.427118838,7.38664341,1.679163337
15.85985204,1.154536963,7.573283672,1.363310695
15.86985204,2.312663078,7.73599577,1.660020709
15.87985204,4.00199604,8.056633949,2.531008244
15.88985204,4.365705013,8.176275253,3.344567776
15.89985204,4.226921082,8.611768723,4.205984116
15.90985204,3.70050025,9.320044518,4.909473896
15.91985204,3.102294445,9.951749802,4.732405186
15.92985204,3.102294445,9.951749802,4.732405186
15.93985204,3.178864956,10.90409279,2.363510609
15.94985204,3.178864956,10.90409279,2.363510609
15.95985204,3.178864956,10.90409279,2.363510609
15.96985204,3.178864956,10.90409279,2.363510609
15.97985204,0.613758981,12.13400364,7.52722168
15.98985204,0.187836573,12.72742367,6.814160824
15.99985204,-0.032303106,13.58883953,4.770689964
16.00985204,-0.032303106,13.58883953,4.770689964
16.01985204,1.092323542,15.01974773,2.124228239
16.02985204,1.786242127,14.74696636,3.421138287
16.03985204,1.786242127,14.74696636,3.421138287
16.04985204,3.355933666,14.65603828,6.215955257
16.05985204,3.839283943,14.92403507,6.838088989
16.06985204,3.753142357,15.50309753,6.718447685
16.07985204,3.753142357,15.50309753,6.718447685
16.08985204,3.753142357,15.50309753,6.718447685
16.09985204,2.920439959,16.51765442,5.330610752
16.10985204,3.628715515,16.12044525,4.995615482
16.11985204,4.705485821,15.53659725,4.660620213
16.12985204,5.901896954,15.00060558,4.043272018
16.13985204,8.002795219,13.97647667,2.358724833
16.14985204,8.423932076,13.6031971,1.81794703
16.15985204,8.787641525,13.40219975,1.727019787
16.16985204,8.787641525,13.40219975,1.727019787
16.17985204,9.43848896,12.88056469,1.937588096
16.18985204,9.256634712,12.50728416,1.688734531
16.19985204,8.801998138,12.14357471,1.430309772
16.20985204,8.801998138,12.14357471,1.430309772
16.21985204,8.801998138,12.14357471,1.430309772
16.22985204,5.930611134,10.72223854,1.463809252
16.23985204,5.930611134,10.72223854,1.463809252
16.24985204,6.256034851,10.98544884,1.703091502
16.25985204,7.371089935,11.11944675,1.803590059
16.26985204,7.371089935,11.11944675,1.803590059
16.27985204,9.476774216,11.65065384,1.549950838
16.28985204,9.476774216,11.65065384,1.549950838
16.29985204,9.582057953,10.29631615,1.636092424
16.30985204,9.309276581,9.468399048,2.535793781
16.31985204,8.840283394,8.362915039,4.239483356
16.32985204,8.074580193,7.228717327,6.455237389
16.33985204,8.074580193,7.228717327,6.455237389
16.34985204,8.074580193,7.228717327,6.455237389
16.35985204,8.074580193,7.228717327,6.455237389
16.36985204,0.494117886,2.639283419,7.163512707
16.37985204,0.494117886,2.639283419,7.163512707
16.38985204,1.168893814,0.265603304,6.330810547
16.39985204,1.168893814,0.265603304,6.330810547
16.40985204,1.168893814,0.265603304,6.330810547
16.41985204,5.073980331,-3.371487141,16.94537163
16.42985204,4.169493675,-3.424129248,16.19881058
16.43985204,3.906282902,-4.290330887,14.21276855
16.44985204,3.561716557,-5.280959606,13.10728455
16.45985204,3.585644722,-5.558526993,16.87358665
16.46985204,4.078566074,-4.831109047,19.97468567
16.47985204,4.418346882,-3.625126362,22.57807541
16.48985204,4.418346882,-3.625126362,22.57807541
16.49985204,6.390032768,-0.198604286,24.45405006
16.50985204,6.390032768,-0.198604286,24.45405006
16.51985204,9.452845573,1.777867198,19.04148483
16.52985204,9.452845573,1.777867198,19.04148483
16.53985204,9.452845573,1.777867198,19.04148483
16.54985204,9.452845573,1.777867198,19.04148483
16.55985204,-0.788435042,0.265603304,15.74417496
16.56985204,-0.788435042,0.265603304,15.74417496
16.57985204,-2.827120066,-1.284945726,13.68634701
16.58985204,-2.827120066,-1.284945726,13.68634701
16.59985204,-2.827120066,-1.284945726,13.68634701
16.60985204,-1.056431174,-0.916451097,10.48953629
16.61985204,-1.056431174,-0.916451097,10.48953629
16.62985204,0.776470959,-1.414158225,11.12124157
16.63985204,1.20717907,-1.524227977,10.60439205
16.64985204,1.479960799,-1.347159147,10.28853893
16.65985204,1.479960799,-1.347159147,10.28853893
16.66985204,3.0448668,-0.4953143,10.88195896
16.67985204,3.877569199,-0.327816695,11.22173977
16.68985204,4.853840828,-0.093320087,10.63310528
16.69985204,5.88754034,0.275174618,9.130413055
16.70985204,6.619743824,0.777667344,7.201797962
16.71985204,7.031309128,2.457428932,3.526422262
16.72985204,6.887740135,3.424129248,2.732005358
16.73985204,6.351747513,4.390829563,2.621935368
16.74985204,6.351747513,4.390829563,2.621935368
16.75985204,4.174279213,5.587240696,3.392424345
16.76985204,2.781656265,6.04187727,3.732205153
16.77985204,1.54217422,6.367300987,3.569493294
16.78985204,1.54217422,6.367300987,3.569493294
16.79985204,1.54217422,6.367300987,3.569493294
16.80985204,0.719043195,9.229117393,4.234697819
16.81985204,1.858026743,9.487542152,4.387838364
16.82985204,2.695514679,9.951749802,4.100699902
16.83985204,3.288934708,10.13360405,3.272783279
16.84985204,3.288934708,10.13360405,3.272783279
16.85985204,3.035295486,10.17667484,2.038086653
16.86985204,3.035295486,10.17667484,2.038086653
16.87985204,3.016152859,10.50688457,2.918645382
16.88985204,3.456432343,10.99023438,2.751147747
16.89985204,4.179064751,11.40658569,2.258226395
16.90985204,4.920839787,12.0095768,1.861017823
16.91985204,4.456632137,12.69392395,3.019144058
16.92985204,3.360719442,13.40219975,4.368695736
16.93985204,1.331605792,14.51246929,5.536393166
16.94985204,-0.104087785,15.23988724,6.206383705
16.95985204,0.163908347,15.59402561,5.727818966
16.96985204,1.78145647,15.92901993,3.947559118
16.97985204,1.78145647,15.92901993,3.947559118
16.98985204,1.78145647,15.92901993,3.947559118
16.99985204,1.78145647,15.92901993,3.947559118
17.00985204,1.78145647,15.92901993,3.947559118
17.01985204,5.758327484,19.81496429,2.803789854
17.02985204,4.389633179,19.73839378,3.253640652
17.03985204,4.389633179,19.73839378,3.253640652
17.04985204,2.417947292,17.25464439,2.784647465
17.05985204,2.178664923,16.52243996,3.210569859
17.06985204,2.178664923,16.52243996,3.210569859
17.07985204,2.633301258,14.99103355,4.191627026
17.08985204,3.384647608,14.51246929,4.35912466
17.09985204,3.920639992,14.17747402,4.076771736
17.10985204,3.829712629,13.58883953,2.61714983
17.11985204,3.829712629,13.58883953,2.61714983
17.12985204,3.829712629,13.58883953,2.61714983
17.13985204,3.829712629,13.58883953,2.61714983
17.14985204,1.743171334,11.59801102,1.24366951
17.15985204,2.824727058,11.18644619,1.736590981
17.16985204,4.523631096,11.87079334,2.918645382
17.17985204,4.394418716,12.58385468,3.392424345
17.18985204,3.638286829,12.77528,3.54556489
17.19985204,2.19780755,12.66042423,3.78484726
17.20985204,0.723828852,12.27278709,3.425923824
17.21985204,-0.032303106,11.43051338,2.29651165
17.22985204,-0.324227482,10.49731255,0.975673437
17.23985204,0.364905447,9.166903496,-0.876371264
17.24985204,1.293320656,8.094919205,-0.091525465
17.25985204,1.293320656,8.094919205,-0.091525465
17.26985204,1.293320656,8.094919205,-0.091525465
17.27985204,3.576073408,5.706882,6.814160824
17.28985204,2.173879385,4.237689018,4.942973614
17.29985204,2.173879385,4.237689018,4.942973614
17.30985204,2.173879385,4.237689018,4.942973614
17.31985204,-0.821934581,-0.782453001,0.784247637
17.32985204,0.762113988,-3.21356082,3.708276987
17.33985204,2.317448616,-5.477170944,7.436294556
17.34985204,4.212564468,-7.267002583,12.68136215
17.35985204,4.212564468,-7.267002583,12.68136215
17.36985204,4.212564468,-7.267002583,12.68136215
17.37985204,3.035295486,-7.807780266,17.01237106
17.38985204,1.465603828,-7.936992645,19.16591072
17.39985204,0.130408838,-7.76949501,24.26740837
17.40985204,0.364905447,-7.075576782,31.68994522
17.41985204,1.470389485,-4.673182487,36.45166016
17.42985204,1.470389485,-4.673182487,36.45166016
17.43985204,1.470389485,-4.673182487,36.45166016
17.44985204,1.470389485,-4.673182487,36.45166016
17.45985204,1.470389485,-4.673182487,36.45166016
17.46985204,1.470389485,-4.673182487,36.45166016
17.47985204,6.595815659,1.481157184,4.306482315
17.48985204,6.595815659,1.481157184,4.306482315
17.49985204,6.595815659,1.481157184,4.306482315
17.50985204,6.595815659,1.481157184,4.306482315
17.51985204,6.595815659,1.481157184,4.306482315
17.52985204,0.005982057,-0.677168787,16.1509552
17.53985204,-0.156729877,-0.165104762,13.06899929
17.54985204,-0.553938448,0.672383189,10.1832552
17.55985204,-0.515653253,1.610369682,8.670990944
17.56985204,-0.515653253,1.610369682,8.670990944
17.57985204,0.302692056,0.768096089,11.4323082
17.58985204,0.623330295,0.217746854,12.67179012
17.59985204,1.116251707,-0.471386075,13.33699512
17.60985204,1.527817249,-0.701097012,13.5284214
17.61985204,1.78145647,-0.064606212,12.22672558
17.62985204,2.336591244,0.279960245,11.41795158
17.63985204,3.068794966,0.571884632,10.87717342
17.64985204,3.695714474,0.906879783,10.70489025
17.65985204,4.00199604,1.37587297,10.65224838
17.66985204,4.00199604,1.37587297,10.65224838
17.67985204,3.585644722,2.323430777,9.675976753
17.68985204,3.585644722,2.323430777,9.675976753
17.69985204,3.585644722,2.323430777,9.675976753
17.70985204,3.126222849,4.309473515,6.144170284
17.71985204,3.126222849,4.309473515,6.144170284
17.72985204,2.891726255,5.099104881,6.206383705
17.73985204,2.42273283,5.204389095,6.522236347
17.74985204,2.42273283,5.204389095,6.522236347
17.75985204,0.556331277,5.745167255,6.70887661
17.76985204,0.628115952,6.037091732,6.259026051
17.77985204,0.982253671,6.558726788,5.679962635
17.78985204,1.499103427,7.166503906,5.306682587
17.79985204,1.78145647,7.664210796,5.502893925
17.80985204,2.169093609,8.128418922,5.981458187
17.81985204,2.738585472,8.726624489,5.139184952
17.82985204,2.738585472,8.726624489,5.139184952
17.83985204,2.738585472,8.726624489,5.139184952
17.84985204,3.164507866,8.654839516,4.158127785
17.85985204,2.537588358,9.013762474,4.531407833
17.86985204,1.403390527,9.358329773,4.780261517
17.87985204,1.403390527,9.358329773,4.780261517
17.88985204,1.403390527,9.358329773,4.780261517
17.89985204,1.403390527,9.358329773,4.780261517
17.90985204,2.690729141,10.55474091,4.086342812
17.91985204,2.690729141,10.55474091,4.086342812
17.92985204,6.265605927,11.02851963,2.167299032
17.93985204,6.040680885,11.50229836,3.679563046
17.94985204,4.231706619,12.6125679,5.804389477
17.95985204,2.915654421,13.58405399,7.441080093
17.96985204,3.322434187,13.52184105,7.378866673
17.97985204,4.777270317,13.02891922,6.483951092
17.98985204,4.777270317,13.02891922,6.483951092
17.99985204,6.796812534,13.31605816,4.971687317
18.00985204,6.796812534,13.31605816,4.971687317
18.01985204,6.796812534,13.31605816,4.971687317
18.02985204,3.293720484,14.16790295,7.780860901
18.03985204,2.169093609,14.06740475,8.517850876
18.04985204,1.365105271,13.8041935,8.517850876
18.05985204,1.015753269,13.11984634,7.498507977
18.06985204,1.015753269,13.11984634,7.498507977
18.07985204,5.136193752,10.75095177,2.277369022
18.08985204,5.136193752,10.75095177,2.277369022
18.09985204,7.174878597,10.39202881,1.755733609
18.10985204,7.830512047,10.32981491,2.478366137
18.11985204,7.830512047,10.32981491,2.478366137
18.12985204,7.328019142,10.62652493,3.301496983
18.13985204,7.328019142,10.62652493,3.301496983
18.14985204,7.328019142,10.62652493,3.301496983
18.15985204,7.328019142,10.62652493,3.301496983
18.16985204,4.088137627,10.98544884,1.545165181
18.17985204,3.561716557,10.85623646,2.009372711
18.18985204,3.303291559,10.74616623,3.076571703
18.19985204,3.303291559,10.74616623,3.076571703
18.20985204,4.083351612,10.13360405,4.904688358
18.21985204,3.997210264,9.990034103,3.344567776
18.22985204,3.853640795,10.13838959,1.281954765
18.23985204,3.815355778,10.45424175,-0.747158885
18.24985204,4.4518466,10.64088249,-3.020340443
18.25985204,5.686542988,10.64566803,-4.556532383
18.26985204,8.668000221,10.77488041,-3.781257868
18.27985204,9.984052658,10.71266651,-1.728216171
18.28985204,9.984052658,10.71266651,-1.728216171
18.29985204,10.83589745,9.879964828,2.095514536
18.30985204,10.13719273,9.109476089,2.588435888
18.31985204,8.715856552,8.362915039,2.062014818
18.32985204,8.715856552,8.362915039,2.062014818
18.33985204,8.715856552,8.362915039,2.062014818
18.34985204,8.715856552,8.362915039,2.062014818
18.35985204,5.968895912,2.467000246,-0.814157903
18.36985204,5.968895912,2.467000246,-0.814157903
18.37985204,6.70588541,-0.466600418,2.306082726
18.38985204,6.447460651,-3.294916868,5.646463394
18.39985204,6.782455921,-4.816751957,8.029714584
18.40985204,8.002795219,-6.649653912,11.23609734
18.41985204,9.428917885,-8.20498848,14.93061543
18.42985204,10.47697353,-9.276973724,18.96969986
18.43985204,10.47697353,-9.276973724,18.96969986
18.44985204,11.37189007,-9.425328255,28.28256607
18.45985204,11.37189007,-9.425328255,28.28256607
18.46985204,11.37189007,-9.425328255,28.28256607
18.47985204,17.03809357,-8.377271652,20.93659973
18.48985204,17.03809357,-8.377271652,20.93659973
18.49985204,17.94258118,-4.299902439,5.426323414
18.50985204,16.16232109,-2.151147604,1.693520188
18.51985204,16.16232109,-2.151147604,1.693520188
18.52985204,9.969695091,-4.649254322,4.29691124
18.53985204,6.729813576,-5.596812248,7.278368473
18.54985204,3.595216036,-5.946164131,9.93918705
18.55985204,1.369890928,-5.984449387,12.16451168
18.56985204,0.226121739,-5.510670662,14.00698566
18.57985204,-0.137587309,-4.405186653,15.3230381
18.58985204,-0.180658117,-3.146561861,13.39920902
18.59985204,-0.147158593,-2.950350285,10.75753212
18.60985204,-0.056231331,-2.510071039,8.565707207
18.61985204,-0.056231331,-2.510071039,8.565707207
18.62985204,1.25503552,-1.773081541,6.407381058
18.63985204,2.360519648,-1.85443759,6.617949009
18.64985204,2.360519648,-1.85443759,6.617949009
18.65985204,5.36111927,-1.591227055,9.154341698
18.66985204,6.01675272,-1.15094769,9.307481766
18.67985204,6.911668301,-0.308674127,9.135198593
18.68985204,8.404789925,0.538385093,7.953144073
18.69985204,9.582057953,1.060020447,5.866602898
18.70985204,10.02233791,1.648654819,3.86620307
18.71985204,8.5148592,3.132204771,1.731805444
18.72985204,8.5148592,3.132204771,1.731805444
18.73985204,5.193621635,4.290330887,3.162713289
18.74985204,3.647858143,5.070391178,4.033700943
18.75985204,2.173879385,6.056233883,4.397409916
18.76985204,1.082752228,6.774080753,4.205984116
18.77985204,1.082752228,6.774080753,4.205984116
18.78985204,1.987239242,7.439285755,3.73699069
18.79985204,2.776870728,7.889136314,5.368896008
18.80985204,3.580859184,8.372486115,6.924230576
18.81985204,4.470989227,8.535198212,8.029714584
18.82985204,5.255835056,8.726624489,8.407780647
18.83985204,5.255835056,8.726624489,8.407780647
18.84985204,5.255835056,8.726624489,8.407780647
18.85985204,4.94955349,10.46859932,4.856831551
18.85985204,4.94955349,10.46859932,4.856831551
18.87985204,5.217549801,10.85145092,5.297111034
18.88985204,5.47597456,11.21515942,6.431309223
18.89985204,6.031109333,11.77986622,7.039085865
18.90985204,7.385447025,13.33041477,7.067800045
18.91985204,6.997809887,13.88554955,6.996015072
18.92985204,6.232106686,14.13918877,6.890730858
18.93985204,5.198407173,14.31147194,6.570092678
18.94985204,4.403990269,14.40718555,6.05324316
18.95985204,4.609772682,14.12004662,5.19182682
18.96985204,6.299105644,13.87597847,4.325624943
18.97985204,7.02652359,13.77069473,4.828117847
18.98985204,7.500302792,13.71326637,5.790032387
18.99985204,7.500302792,13.71326637,5.790032387
19.00985204,7.500302792,13.71326637,5.790032387
19.01985204,7.500302792,13.71326637,5.790032387
19.02985204,6.538387775,13.21555901,5.344967365
19.03985204,6.538387775,13.21555901,5.344967365
19.04985204,6.538387775,13.21555901,5.344967365
19.05985204,5.600401402,11.08594704,2.18644166
19.06985204,5.600401402,11.08594704,2.18644166
19.07985204,7.021738052,10.34895802,1.516451359
19.08985204,7.892725468,9.908679008,1.473380566
19.09985204,8.830712318,9.745966911,1.990230203
19.10985204,8.902496338,9.765109062,1.985444546
19.11985204,8.309076309,9.755537987,1.277169108
19.12985204,7.605587006,9.784252167,0.229112774
19.13985204,6.878168583,9.722038269,-0.661017239
19.14985204,6.346961975,9.650253296,-1.182652593
19.15985204,6.284748554,9.616754532,-1.594218135
19.16985204,6.284748554,9.616754532,-1.594218135
19.17985204,6.284748554,9.616754532,-1.594218135
19.18985204,10.17069244,9.032905579,-0.646660328
19.18985204,10.17069244,9.032905579,-0.646660328
19.20985204,13.12343597,8.884550095,-0.196809664
19.21985204,13.12343597,8.884550095,-0.196809664
19.22985204,13.12343597,8.884550095,-0.196809664
19.23985204,15.76032639,6.276373863,0.377467781
19.24985204,15.70768452,5.347958565,0.166899383
19.25985204,15.28654766,4.462614059,-0.292522579
19.26985204,14.71705532,3.558127165,-0.890728235
19.27985204,13.85563946,2.66799736,-1.326221943
19.28985204,12.83629704,1.816152334,-1.3310076
19.29985204,12.83629704,1.816152334,-1.3310076
19.30985204,12.35773277,-3.170490026,0.789033294
19.31985204,12.35773277,-3.170490026,0.789033294
19.32985204,12.5060873,-6.482156754,4.555335999
19.33985204,12.59222889,-7.659425259,7.22094059
19.34985204,12.57787228,-8.635697365,10.52782154
19.35985204,12.57787228,-8.635697365,10.52782154
19.36985204,11.95095253,-11.12423229,16.46680641
19.37985204,11.95095253,-11.12423229,16.46680641
19.38985204,12.23809147,-10.88016415,16.54816246
19.39985204,12.13759327,-9.454042435,16.59123421
19.40985204,11.88395405,-7.855636597,17.88814354
19.41985204,10.96510983,-4.993820667,23.57349014
19.42985204,10.23769188,-3.83569479,25.29632187
19.43985204,9.213563919,-3.333201885,24.92782784
19.44985204,8.400003433,-3.103491068,22.02772713
19.45985204,7.897511005,-3.237488985,17.23250961
19.46985204,7.897511005,-3.237488985,17.23250961
19.47985204,5.016552448,-2.98863554,11.62373447
19.48985204,5.016552448,-2.98863554,11.62373447
19.49985204,1.834098577,-3.270988464,12.54257774
19.50985204,2.183450699,-3.553341627,13.00678539
19.51985204,2.886940479,-4.007977962,13.20299721
19.52985204,3.422932863,-4.34775877,12.95892906
19.53985204,3.609572887,-4.275974274,12.2602253
19.54985204,3.394218922,-3.390629768,9.963115692
19.55985204,3.719642878,-2.74935317,9.053842545
19.56985204,3.719642878,-2.74935317,9.053842545
19.57985204,3.719642878,-2.74935317,9.053842545
19.58985204,6.289534092,-2.041077614,8.335995674
19.59985204,7.150950432,-1.619940877,8.747561455
19.60985204,8.289934158,-1.351944804,8.934201241
19.61985204,8.289934158,-1.351944804,8.934201241
19.62985204,8.289934158,-1.351944804,8.934201241
19.63985204,9.347561836,0.672383189,3.961916208
19.64985204,7.562515736,1.897508383,3.693919897
19.65985204,5.676971912,3.136990547,3.823132277
19.66985204,4.045066833,4.275974274,4.019343853
19.67985204,4.045066833,4.275974274,4.019343853
19.68985204,3.37986207,5.285745144,2.48793745
19.69985204,3.37986207,5.285745144,2.48793745
19.70985204,4.360919476,5.821737289,1.975873351
19.71985204,4.724628448,6.486942291,2.119442701
19.72985204,4.916054249,7.046862602,2.755933523
19.73985204,5.538187981,7.190432072,2.971287489
19.74985204,7.658228874,6.721438885,1.320239902
19.75985204,8.433503151,6.620940208,-0.555733085
19.76985204,8.433503151,6.620940208,-0.555733085
19.77985204,8.270791054,6.55394125,-3.695116282
19.78985204,8.270791054,6.55394125,-3.695116282
19.79985204,4.652843475,7.640282631,-2.139781713
19.80985204,4.652843475,7.640282631,-2.139781713
19.81985204,4.652843475,7.640282631,-2.139781713
19.82985204,1.609173179,10.88973618,8.40299511
19.83985204,3.131008387,10.96630573,8.972486496
19.84985204,4.600201607,11.32522964,8.680562019
19.85985204,5.676971912,12.14357471,8.192426682
19.86985204,5.676971912,12.14357471,8.192426682
19.87985204,4.762913704,15.50309753,10.03011417
19.88985204,5.059623718,16.39801407,11.06381416
19.89985204,5.906682491,16.8909359,11.03031445
19.90985204,6.911668301,17.38385582,10.33639526
19.91985204,7.505088329,17.81934929,9.738189697
19.92985204,7.639086246,17.98206139,9.5754776
19.93985204,7.332805157,17.5944252,10.82931709
19.94985204,6.978667259,17.40778542,11.69073296
19.95985204,6.820741177,17.11107445,11.76251793
19.96985204,6.820741177,17.11107445,11.76251793
19.97985204,7.581658363,15.47438431,8.986844063
19.98985204,8.213363647,14.55554008,7.321439266
19.99985204,8.213363647,14.55554008,7.321439266
20.00985204,9.46720314,12.29671574,4.852046013
20.01985204,9.270991325,11.7272234,4.440480709
20.02985204,8.935996056,11.17208862,4.043272018
20.03985204,8.524430275,10.65045357,3.679563046
20.04985204,8.342576027,10.22931671,3.057429075
20.05985204,8.347361565,9.793823242,2.334796667
20.06985204,7.935796261,9.43489933,1.784447432
20.07985204,7.677371502,9.12861824,1.746162295
20.08985204,7.452445984,8.702695847,1.435095429
20.09985204,7.256234646,8.420342445,0.741176844
20.10985204,7.189235687,8.286344528,-0.23509483
20.11985204,7.701299667,8.008777618,-1.067797065
20.12985204,9.046066284,7.458428383,-2.469991207
20.12985204,9.046066284,7.458428383,-2.469991207
20.14985204,9.046066284,7.458428383,-2.469991207
20.15985204,9.572486877,6.080162525,-2.694916487
20.16985204,9.285347939,5.510670662,-2.259422779
20.17985204,8.993423462,4.811966419,-1.843071699
20.18985204,8.763712883,4.017549038,-1.015154958
20.19985204,8.763712883,4.017549038,-1.015154958
20.20985204,8.763712883,4.017549038,-1.015154958
20.21985204,9.639486313,0.782453001,-0.646660328
20.22985204,9.639486313,0.782453001,-0.646660328
20.23985204,9.926624298,-1.749153376,-2.723630428
20.24985204,10.70189953,-3.601198196,-2.541775942
20.25985204,10.70189953,-3.601198196,-2.541775942
20.26985204,13.46321678,-9.2865448,8.651848793
20.27985204,13.46321678,-9.2865448,8.651848793
20.28985204,13.16650677,-11.01416302,19.25205231
20.29985204,12.22373486,-11.31565857,23.52563477
20.30985204,11.18046379,-10.9806633,27.24886513
20.31985204,9.668199539,-7.884350777,31.5368042
20.32985204,9.97926712,-6.649653912,29.81875801
20.33985204,11.45803165,-5.697310925,25.27717972
20.34985204,12.96550941,-4.213760853,18.92184258
20.35985204,12.61137199,-2.481357098,13.3657093
20.36985204,10.13719273,-1.557727575,10.73360443
20.37985204,7.064808846,-1.830509305,10.80538845
20.38985204,7.064808846,-1.830509305,10.80538845
20.39985204,7.064808846,-1.830509305,10.80538845
20.40985204,7.064808846,-1.830509305,10.80538845
20.41985204,7.064808846,-1.830509305,10.80538845
20.42985204,7.064808846,-1.830509305,10.80538845
20.43985204,-0.802792013,-3.012563705,10.32682419
20.44985204,-0.802792013,-3.012563705,10.32682419
20.45985204,-0.802792013,-3.012563705,10.32682419
20.46985204,3.346362352,-1.208375454,10.26939678
20.47985204,3.346362352,-1.208375454,10.26939678
20.48985204,4.877768993,-0.758524776,9.029914856
20.49985204,4.877768993,-0.758524776,9.029914856
20.50985204,5.351547718,0.346959293,7.790432453
20.51985204,5.992824078,1.275374413,7.881359577
20.52985204,6.433103561,0.973878801,7.465008259
20.53985204,7.012166977,0.796809912,6.90030241
20.54985204,7.485945702,1.442872047,6.57966423
20.55985204,7.466803074,2.74935317,6.613163471
20.56985204,7.409375191,3.610769272,7.000801086
20.57985204,7.399804115,4.912465096,6.981658459
20.58985204,7.366304398,5.558526993,6.536593437
20.59985204,7.926225185,5.615954876,5.761318684
20.60985204,7.926225185,5.615954876,5.761318684
20.61985204,9.007781029,5.146961689,2.952144861
20.62985204,8.806783676,5.697310925,2.401795626
20.63985204,7.974081516,6.372086525,2.956930637
20.64985204,7.974081516,6.372086525,2.956930637
20.65985204,7.974081516,6.372086525,2.956930637
20.66985204,3.662214994,7.908278942,7.675576687
20.67985204,3.662214994,7.908278942,7.675576687
20.68985204,4.389633179,8.090133667,4.684548378
20.69985204,5.150550842,8.123632431,2.598007202
20.70985204,5.600401402,9.588040352,1.033101201
20.71985204,4.341776848,10.28195858,1.693520188
20.72985204,4.341776848,10.28195858,1.693520188
20.73985204,4.341776848,10.28195858,1.693520188
20.74985204,-0.003589234,10.92802143,6.19681263
20.75985204,-0.620937467,11.28694439,6.55095005
20.76985204,-0.668793917,11.55015469,5.84746027
20.77985204,0.608973384,12.44507027,3.669991732
20.78985204,0.809970438,13.17248821,2.956930637
20.79985204,0.594616413,13.23948765,2.846860647
20.80985204,0.36011982,12.7944231,3.277568817
20.81985204,0.211764798,12.31585789,4.177269936
20.82985204,0.144765764,11.85165024,5.263611794
20.83985204,0.269192547,11.46879864,6.699305058
20.84985204,0.273978204,11.5836544,6.675376892
20.85985204,-0.386440843,12.27278709,6.426523209
20.86985204,-1.841277003,13.12463188,6.574878216
20.87985204,-3.21954298,13.41655636,7.283154011
20.88985204,-4.200600147,13.21077347,8.087141991
20.89985204,-3.961317778,12.66521072,8.326424599
20.90985204,-2.176272154,11.67458153,7.914859295
20.91985204,-2.176272154,11.67458153,7.914859295
20.92985204,-2.176272154,11.67458153,7.914859295
20.93985204,3.059223652,10.24845982,6.536593437
20.94985204,3.059223652,10.24845982,6.536593437
20.95985204,4.590630054,10.55952644,5.770890236
20.96985204,4.590630054,10.55952644,5.770890236
20.97985204,4.590630054,10.55952644,5.770890236
20.98985204,4.590630054,10.55952644,5.770890236
20.99985204,4.772484779,11.55015469,1.569093466
20.98985204,4.772484779,11.55015469,1.569093466
21.01985204,6.318248272,12.20578861,-0.440877587
21.02985204,6.318248272,12.20578861,-0.440877587
21.03985204,5.523830891,12.99063396,2.468794823
21.04985204,4.84905529,13.13420391,1.502094388
21.05985204,4.380061626,13.18684578,0.099900343
21.06985204,4.183850288,13.31605816,-0.986441135
21.07985204,4.250849247,13.12941742,-1.709073544
21.08985204,4.370490551,12.82792187,-1.6181463
21.09985204,4.734199524,12.37807178,1.071386337
21.10985204,4.734199524,12.37807178,1.071386337
21.11985204,5.523830891,11.85643578,2.09072876
21.12985204,6.007181168,11.67458153,1.334596872
21.13985204,6.466603279,11.46879864,0.535394073
21.14985204,6.763313293,11.38744259,0.181256309
21.15985204,7.083951473,10.84666538,0.803390205
21.16985204,7.093522549,10.4159565,1.712662816
21.17985204,7.093522549,10.4159565,1.712662816
21.18985204,8.10807991,8.511270523,1.382453322
21.19985204,9.189635277,7.511070251,0.521037102
21.20985204,10.72582722,6.166304111,-0.11545369
21.21985204,11.69252777,4.328616142,-0.345164657
21.22985204,11.69252777,4.328616142,-0.345164657
21.23985204,11.69252777,4.328616142,-0.345164657
21.24985204,9.969695091,-2.065006018,3.574278831
21.24985204,11.69252777,4.328616142,-0.345164657
21.26985204,10.64447117,-6.367300987,7.934001446
21.27985204,11.44845963,-8.487341881,11.56630611
21.28985204,11.44845963,-8.487341881,11.56630611
21.29985204,10.7114706,-10.29631615,27.25365257
21.30985204,10.02712345,-8.822337151,31.46501923
21.31985204,9.644271851,-6.654439926,31.72822952
21.32985204,11.20917797,-5.142175674,27.47857666
21.33985204,14.65484238,-4.046263218,19.74975967
21.34985204,16.4781723,-1.447657704,8.919844627
21.35985204,13.22871971,-1.016949654,10.01097202
21.36985204,8.730213165,-1.366301775,13.47577858
21.37985204,4.576273441,-2.031506538,17.42872238
21.38985204,1.762313843,-2.46221447,20.62074661
21.39985204,0.235693038,-3.022135019,21.53959084
21.40985204,-0.262014091,-3.59641242,19.80718803
21.41985204,-0.262014091,-3.59641242,19.80718803
21.42985204,-0.262014091,-3.59641242,19.80718803
21.43985204,1.915454507,-3.457628727,8.819346428
21.44985204,2.700300455,-2.859423161,8.106285095
21.45985204,3.466003656,-2.356930256,7.766504288
21.46985204,4.121636868,-1.892722726,7.522436142
21.47985204,4.121636868,-1.892722726,7.522436142
21.48985204,4.107280254,-0.203389928,7.498507977
21.49985204,3.375076294,0.567098975,7.345367432
21.50985204,2.690729141,1.414158225,7.608577728
21.51985204,2.360519648,2.213361025,8.383852005
21.52985204,2.408375978,2.596212626,9.192625999
21.53985204,2.733799934,2.65364027,9.360123634
21.54985204,2.733799934,2.65364027,9.360123634
21.55985204,2.733799934,2.65364027,9.360123634
21.56985204,6.495316982,2.720639229,7.173084259
21.57985204,6.495316982,2.720639229,7.173084259
21.58985204,6.256034851,4.146761417,5.933601856
21.59985204,5.485546112,4.831109047,5.943173409
21.60985204,5.485546112,4.831109047,5.943173409
21.61985204,3.327219963,4.802394867,6.436094761
21.62985204,3.327219963,4.802394867,6.436094761
21.63985204,2.633301258,4.98903513,6.38823843
21.64985204,2.10209465,5.266602516,6.924230576
21.65985204,1.728814363,5.960521221,8.005785942
21.66985204,1.283749342,6.391229153,8.517850876
21.67985204,0.025124637,7.324429989,8.158926964
21.68985204,-0.472582459,7.72163868,7.431509018
21.69985204,-0.812363267,7.745566845,6.201598167
21.70985204,-0.888933599,7.73599577,5.105685234
21.71985204,-0.917647481,8.003992081,4.641477585
21.72985204,-1.128215909,8.243273735,4.785047054
21.73985204,-1.554138303,8.578269005,6.842874527
21.74985204,-1.51106751,8.769695282,7.685148239
21.75985204,-1.51106751,8.769695282,7.685148239
21.76985204,-1.668993831,9.449256897,6.737590313
21.77985204,-1.668993831,9.449256897,6.737590313
21.78985204,0.05383851,10.28674412,4.469194412
21.79985204,0.05383851,10.28674412,4.469194412
21.80985204,0.05383851,10.28674412,4.469194412
21.81985204,2.920439959,12.57428265,3.215355396
21.82985204,2.441875458,13.16291714,4.737190723
21.83985204,1.8628124,13.59841156,6.364310265
21.84985204,1.8628124,13.59841156,6.364310265
21.85985204,1.412961721,14.06740475,7.278368473
21.86985204,1.575673699,15.18245983,6.756732941
21.87985204,1.575673699,15.18245983,6.756732941
21.88985204,1.465603828,16.43151283,5.885745525
21.89985204,1.164108157,17.24507332,5.469394207
21.90985204,0.905683398,17.6566391,5.71824789
21.91985204,0.747757077,18.19263077,6.531807423
21.92985204,1.427318692,18.40798378,7.421937466
21.93985204,1.881955028,18.32662773,6.857231617
21.94985204,2.34137702,18.07777596,5.952744484
21.95985204,2.34137702,18.07777596,5.952744484
21.96985204,3.46121788,16.91007805,4.660620213
21.97985204,4.49970293,16.42672729,4.775475979
21.98985204,5.562116146,15.7375946,5.105685234
21.99985204,5.562116146,15.7375946,5.105685234
22.00985204,5.562116146,15.7375946,5.105685234
22.01985204,5.562116146,15.7375946,5.105685234
22.02985204,2.7577281,13.48834133,4.129413605
22.03985204,2.044667006,13.14856052,3.205784082
22.04985204,1.81495595,12.85185051,2.942573547
22.05985204,1.81495595,12.85185051,2.942573547
22.06985204,2.269592285,11.32522964,3.890131474
22.07985204,2.523231506,10.79880905,4.249054909
22.08985204,2.293520451,10.40159988,4.540979385
22.09985204,1.527817249,10.14796066,4.31126833
22.10985204,0.920040309,9.444471359,3.430709362
22.11985204,0.546759963,8.597412109,2.483151674
22.12985204,0.546759963,8.597412109,2.483151674
22.13985204,0.546759963,8.597412109,2.483151674
22.14985204,0.709471941,5.994020939,-0.876371264
22.15985204,0.709471941,5.994020939,-0.876371264
22.16985204,0.872183859,5.405386448,3.306282759
22.17985204,0.149551421,5.108676434,6.18245554
22.18985204,0.149551421,5.108676434,6.18245554
22.19985204,-3.535395384,3.433700562,3.842274904
22.20985204,-3.535395384,3.433700562,3.842274904
22.21985204,-4.109673023,2.194218397,-0.177667081
22.22985204,-2.851048231,0.892522871,-0.890728235
22.23985204,-0.769292474,-0.44745782,-0.584446907
22.24985204,-0.769292474,-0.44745782,-0.584446907
22.25985204,-0.769292474,-0.44745782,-0.584446907
22.26985204,2.537588358,-4.596612453,12.95892906
22.27985204,1.747956991,-5.740381718,12.79143143
22.28985204,2.585444927,-7.5924263,11.38445187
22.29985204,2.585444927,-7.5924263,11.38445187
22.30985204,3.265006542,-9.918250084,13.04028511
22.31985204,0.216550454,-8.190631866,27.72743034
22.32985204,-1.75034976,-5.587240696,37.50928879
22.33985204,-3.798605919,-2.644068956,43.22813416
22.34985204,-4.186243057,-1.24666059,43.17549515
22.35985204,-1.487139225,-2.112862349,36.88237
22.36985204,2.571087837,-3.357130051,26.29652214
22.37985204,3.202793121,-2.883351326,11.92044449
22.38985204,0.039481573,-2.538784742,12.9637146
22.39985204,-2.650051117,-2.744567633,16.63430405
22.40985204,-3.808177233,-3.491128206,20.5441761
22.41985204,-3.808177233,-4.606183529,22.80778694
22.42985204,-3.023331404,-6.02752018,22.2000103
22.43985204,-1.850848317,-7.089933395,19.76411629
22.44985204,-1.850848317,-7.089933395,19.76411629
22.45985204,-1.850848317,-7.089933395,19.76411629
22.46985204,-1.850848317,-7.089933395,19.76411629
22.47985204,2.681157827,-4.151547432,9.690333366
22.48985204,2.547159672,-3.012563705,10.25025368
22.49985204,2.236092806,-2.084148407,10.48475075
22.50985204,2.236092806,-2.084148407,10.48475075
22.51985204,0.757328391,0.246460736,4.885545731
22.52985204,0.474975288,1.19880414,2.574079037
22.53985204,0.326620281,2.648854733,1.353739381
22.54985204,0.106480606,3.912265062,1.047458172
22.55985204,0.149551421,4.314259052,1.636092424
22.56985204,0.010767702,4.591826439,2.42572403
22.57985204,-0.831505895,5.534598827,4.421338081
22.58985204,-0.831505895,5.534598827,4.421338081
22.59985204,0.13519448,6.099305153,4.47397995
22.60985204,0.245264322,6.592226505,3.646063566
22.61985204,-0.314656168,7.381857872,2.61714983
22.62985204,-1.070788145,8.085348129,1.267597795
22.63985204,-1.070788145,8.085348129,1.267597795
22.64985204,-2.927618504,9.707681656,-1.230509043
22.65985204,-2.927618504,9.707681656,-1.230509043
22.66985204,-1.592423439,9.238688469,0.932602644
22.67985204,-1.472782373,9.688538551,2.243869543
22.68985204,-1.47756803,10.10967541,3.191427231
22.69985204,-1.161715388,10.20060253,3.306282759
22.70985204,-0.204586342,10.52124119,1.96151638
22.71985204,0.40797627,10.60259724,1.573879123
22.72985204,1.077966571,10.54995537,1.645663738
22.73985204,1.211964726,10.50209904,2.071586132
22.74985204,0.575473845,10.57866859,3.110071182
22.74985204,0.575473845,10.57866859,3.110071182
22.76985204,0.575473845,10.57866859,3.110071182
22.77985204,0.575473845,10.57866859,3.110071182
22.78985204,-1.113858938,12.26321602,5.215754986
22.79985204,-0.113659076,12.53121185,4.718048096
22.80985204,0.685543716,12.9379921,4.162913322
22.81985204,1.183250785,13.21077347,4.765904427
22.82985204,1.183250785,13.21077347,4.765904427
22.83985204,1.183250785,13.21077347,4.765904427
22.84985204,1.183250785,13.21077347,4.765904427
22.85985204,1.183250785,13.21077347,4.765904427
22.86985204,-2.353341103,16.53679657,10.47996521
22.87985204,-3.238685369,17.26421547,10.04925728
22.88985204,-2.779263496,17.58963966,8.656634331
22.89985204,-0.037088752,17.11585999,9.111269951
22.90985204,1.575673699,16.78086472,11.14995575
22.91985204,2.872583628,16.25444412,12.61914825
22.92985204,3.748356581,15.62273884,12.41336536
22.93985204,4.092923164,14.914464,10.81017494
22.94985204,4.11685133,14.61775398,8.517850876
22.95985204,4.11685133,14.61775398,8.517850876
22.96985204,6.112465382,13.53141212,2.162513494
22.97985204,6.959524632,13.14856052,1.396810174
22.98985204,7.462017536,12.80877972,0.841675341
22.99985204,7.299305439,12.82792187,0.77946198
23.00985204,6.476174355,12.8757782,0.836889744
23.01985204,5.480760098,12.7944231,1.023529887
23.02985204,3.829712629,12.52164078,0.899103105
23.03985204,3.566502094,12.26800156,0.324825674
23.04985204,3.413361549,12.08614731,-0.316450804
23.05985204,3.413361549,12.08614731,-0.316450804
23.06985204,2.173879385,11.7463665,-0.775872767
23.07985204,2.173879385,11.7463665,-0.775872767
23.08985204,2.173879385,11.7463665,-0.775872767
23.09985204,2.173879385,11.7463665,-0.775872767
23.10985204,2.173879385,11.7463665,-0.775872767
23.11985204,7.131807804,9.387042999,-1.977069736
23.12985204,6.820741177,8.396414757,-2.335993052
23.13985204,5.279763222,7.525427341,-1.65164578
23.14985204,2.877369165,6.386443615,0.047258247
23.15985204,2.877369165,6.386443615,0.047258247
23.16985204,-0.888933599,2.89292264,9.451051712
23.17985204,-0.888933599,2.89292264,9.451051712
23.18985204,1.125823021,0.370887518,8.91505909
23.19985204,1.283749342,0.078963146,6.302096844
23.20985204,1.322034478,-0.394815743,4.29691124
23.21985204,3.303291559,-3.548556089,4.272983074
23.22985204,5.499902725,-5.931807518,7.297510624
23.23985204,8.280363083,-8.401200294,12.63350582
23.24985204,10.35733318,-9.836894035,18.71606064
23.25985204,10.35733318,-9.836894035,18.71606064
23.26985204,8.227720261,-8.803194046,25.22932434
23.27985204,8.227720261,-8.803194046,25.22932434
23.28985204,8.227720261,-8.803194046,25.22932434
23.29985204,-0.745364249,-2.165504456,29.02433968
23.30985204,1.747956991,-1.605584025,28.27778053
23.31985204,5.083551884,-1.490728498,24.79861641
23.32985204,6.902096748,-0.906879783,20.42453575
23.33985204,5.605186939,0.193818629,17.59622002
23.34985204,5.605186939,0.193818629,17.59622002
23.35985204,-4.588237286,1.131805062,18.25663948
23.36985204,-5.727221012,0.227318153,18.43849373
23.37985204,-5.344369411,-0.86380899,17.2803669
23.38985204,-4.104887009,-1.715653777,15.49053574
23.39985204,-2.78883481,-2.122433662,13.79641724
23.40985204,-0.214157626,-2.103291035,11.10688496
23.41985204,1.326820135,-2.203789711,9.747760773
23.42985204,1.326820135,-2.203789711,9.747760773
23.43985204,3.437289715,-1.639083505,8.838488579
23.44985204,4.083351612,-1.428515077,9.403194427
23.45985204,4.590630054,-1.304088354,10.28853893
23.46985204,4.676771641,-1.021735311,10.88195896
23.47985204,4.676771641,-1.021735311,10.88195896
23.48985204,4.676771641,-1.021735311,10.88195896
23.49985204,2.537588358,0.524028182,8.077570915
23.50985204,2.049452543,1.160519004,8.259425163
23.51985204,1.877169371,1.653440475,7.675576687
23.52985204,2.015953064,2.347358942,6.57966423
23.53985204,2.015953064,2.347358942,6.57966423
23.54985204,2.62851572,5.72123909,3.497708559
23.55985204,2.62851572,5.72123909,3.497708559
23.56985204,3.79621315,6.644868374,0.836889744
23.57985204,3.992424488,6.95114994,0.870389223
23.58985204,3.748356581,7.161718369,1.798804402
23.59985204,3.097508907,7.381857872,2.995215654
23.60985204,3.097508907,7.381857872,2.995215654
23.60985204,1.7670995,7.970492363,4.162913322
23.62985204,0.283549488,8.803194046,4.095914364
23.63985204,-0.85543412,9.1860466,4.718048096
23.64985204,-2.362912416,9.597611427,5.928816319
23.65985204,-3.678964853,9.970891953,7.06301403
23.66985204,-3.678964853,9.970891953,7.06301403
23.67985204,-3.678964853,9.970891953,7.06301403
23.68985204,-3.678964853,9.970891953,7.06301403
23.69985204,-2.951546669,9.339186668,4.718048096
23.70985204,-2.434697151,9.190832138,3.88056016
23.71985204,-2.238485575,9.449256897,4.220340729
23.72985204,-2.228914261,10.06660461,5.383252621
23.73985204,-3.080759048,11.68893814,6.866802692
23.74985204,-3.233899832,12.0095768,5.84746027
23.75985204,-3.195614576,12.22493076,4.354339123
23.76985204,-3.162115097,12.42114258,3.067000389
23.77985204,-3.296113253,12.37328625,2.387438774
23.78985204,-3.81296277,12.46899891,2.454437733
23.79985204,-5.358726501,13.19163132,5.340181828
23.80985204,-5.358726501,13.19163132,5.340181828
23.81985204,-5.358726501,13.19163132,5.340181828
23.82985204,-6.569494724,14.79482269,7.278368473
23.83985204,-6.559923172,15.16810226,6.273382664
23.84985204,-6.248856544,15.47438431,5.0291152
23.85985204,-6.248856544,15.47438431,5.0291152
23.86985204,-6.248856544,15.47438431,5.0291152
23.87985204,-2.142772675,15.52702618,3.325425386
23.88985204,-2.142772675,15.52702618,3.325425386
23.89985204,-0.400797784,15.30210114,2.531008244
23.90985204,0.173479646,14.98624802,2.325225353
23.91985204,0.671186745,14.4693985,2.306082726
23.92985204,1.441675663,13.32562923,2.645863533
23.93985204,1.503889084,12.86142159,2.818146944
23.94985204,1.475175142,12.40199947,2.842075109
23.95985204,1.479960799,11.9090786,2.71286273
23.96985204,1.580459356,11.526227,2.870789051
23.97985204,1.580459356,11.526227,2.870789051
23.98985204,1.580459356,11.526227,2.870789051
23.99985204,1.642672777,11.26301575,3.287140131
24.00985204,1.642672777,11.26301575,3.287140131
24.01985204,0.589830756,11.25823021,2.468794823
24.02985204,-0.290727943,11.34915733,2.129014015
24.03985204,-0.917647481,11.35394382,1.760519266
24.04985204,-0.56829536,11.3443718,1.703091502
24.05985204,3.126222849,10.95194912,1.731805444
24.06985204,4.715056896,10.96630573,1.636092424
24.07985204,5.715256691,10.66002464,1.636092424
24.08985204,6.011966705,10.21017456,2.018944025
24.09985204,5.868397713,9.731609344,2.717648268
24.10985204,5.385047436,9.061619759,3.200998545
24.11985204,4.11685133,7.209574699,3.497708559
24.12985204,2.973082066,6.262016773,3.071786165
24.13985204,1.838884234,5.18046093,2.349153519
24.14985204,1.30289197,4.15633297,1.334596872
24.15985204,1.747956991,2.758924484,0.214755833
24.16985204,2.657229662,0.882951558,-0.144167557
24.17985204,2.657229662,0.882951558,-0.144167557
24.18985204,2.657229662,0.882951558,-0.144167557
24.19985204,2.657229662,0.882951558,-0.144167557
24.20985204,5.045266628,-5.03689146,8.316853523
24.21985204,4.62891531,-6.817151546,10.10668468
24.22985204,4.217350006,-8.74576664,12.24108219
24.23985204,4.341776848,-10.9184494,14.72483253
24.24985204,4.341776848,-10.9184494,14.72483253
24.25985204,4.341776848,-10.9184494,14.72483253
24.26985204,3.1405797,-11.17687416,33.80041504
24.27985204,2.528017044,-8.109275818,36.67180252
24.28985204,3.394218922,-5.175675392,36.14059448
24.29985204,5.79661274,-3.026920557,31.9387989
24.30985204,5.174479008,0.184247345,21.45344925
24.31985204,0.666401088,1.462014675,19.90768623
24.32985204,-4.310669899,1.710868239,20.52503395
24.33985204,-4.310669899,1.710868239,20.52503395
24.34985204,-9.354740143,-0.380458802,21.25245285
24.35985204,-9.196813583,-2.447857618,19.63490486
24.36985204,-8.450253487,-4.161118507,17.25643921
24.37985204,-8.450253487,-4.161118507,17.25643921
24.38985204,-8.450253487,-4.161118507,17.25643921
24.39985204,-8.450253487,-4.161118507,17.25643921
24.40985204,-2.319841623,-5.8983078,11.96351528
24.41985204,-0.793220699,-5.769095421,11.76251793
24.42985204,0.733400166,-5.486742496,12.04965687
24.43985204,0.733400166,-5.486742496,12.04965687
24.44985204,2.126022816,-3.672982693,11.02552891
24.45985204,2.126022816,-3.672982693,11.02552891
24.46985204,2.470589399,-2.155933142,9.63290596
24.47985204,2.839084148,-1.323230863,9.374481201
24.48985204,3.403790236,-0.873380244,8.666205406
24.49985204,3.963710785,-0.366101861,7.627720356
24.50985204,3.542573929,1.878365755,7.436294556
24.51985204,2.403590441,3.041277647,7.761718273
24.52985204,0.943968534,3.883551121,7.335795879
24.53985204,-0.467796832,4.486542225,6.369095802
24.54985204,-1.75034976,5.142175674,5.163113117
24.55985204,-2.697907448,5.740381718,4.239483356
24.56985204,-1.97527504,6.295516491,3.009572744
24.57985204,0.049052864,6.290730953,2.71286273
24.58985204,2.666800737,6.094519138,1.91365993
24.59985204,2.666800737,6.094519138,1.91365993
24.60985204,2.666800737,6.094519138,1.91365993
24.61985204,6.122036934,8.324629784,2.69850564
24.62985204,4.193421841,9.56411171,2.789433002
24.63985204,0.719043195,10.13838959,2.631506681
24.64985204,0.336191595,9.674181938,3.095714331
24.65985204,0.254835606,9.1860466,3.88056016
24.66985204,0.077766739,8.836693764,5.287539959
24.67985204,-0.065802626,9.071190834,7.488936901
24.68985204,-0.041874398,9.162117958,9.83868885
24.69985204,-0.041874398,9.162117958,9.83868885
24.70985204,-0.041874398,9.162117958,9.83868885
24.71985204,5.227120876,9.913464546,9.259625435
24.72985204,6.452246189,10.32981491,6.589235306
24.73985204,6.452246189,10.32981491,6.589235306
24.74985204,7.04088068,11.02373409,1.650449395
24.75985204,7.04088068,11.02373409,1.650449395
24.76985204,7.529016495,10.14796066,2.454437733
24.77985204,7.160521984,10.01396275,4.871188641
24.78985204,7.160521984,10.01396275,4.871188641
24.79985204,6.739385128,9.707681656,7.3980093
24.80985204,6.504888535,10.10010433,7.575078487
24.81985204,6.303891182,10.57388306,7.086942673
24.82985204,6.303891182,10.57388306,7.086942673
24.83985204,5.806184292,11.301301,4.277768612
24.84985204,6.055037498,11.26780224,3.598206997
24.85985204,7.021738052,11.12423229,3.401995659
24.86985204,8.275577545,10.93759251,3.818346739
24.87985204,9.337990761,11.07159042,4.483551502
24.88985204,10.66361427,11.50229836,4.871188641
24.89985204,10.88853931,11.73679543,4.746761799
