Time (s),Acceleration x (m/s^2),Acceleration y (m/s^2),Acceleration z (m/s^2)
0.042412086,1.934597135,6.774080753,6.584449768
0.051067659,1.853241086,6.664011002,7.06301403
0.061067659,0,0,0
0.071067659,0.704686284,7.338787079,7.110870838
0.081067659,0.187836573,7.334001541,6.790232658
0.091067659,-0.266799718,7.491927624,6.522236347
0.101067659,-0.620937467,7.79820919,6.522236347
0.111067659,-0.821934581,8.013563156,6.780661106
0.121067659,-0.821934581,8.013563156,6.780661106
0.131067659,-0.821934581,8.013563156,6.780661106
0.141067659,-1.400997639,8.573483467,8.335995674
0.151067659,-1.635494232,8.602197647,8.460422516
0.161067659,-1.793420553,8.568697929,8.642276764
0.171067659,-1.817348838,8.463413239,8.88634491
0.181067659,-0.927218795,7.92742157,9.690333366
0.191067659,-0.147158593,7.544569969,9.896116257
0.201067659,0.556331277,7.176074982,9.948758125
0.211067659,1.001396298,6.941578388,9.819545746
0.221067659,1.235892892,6.865008354,9.522835732
0.231067659,1.374676585,6.850651264,9.034700394
0.241067659,1.389033556,6.807580471,8.331210136
0.251067659,1.082752228,6.716653347,6.962515831
0.261067659,0.862612545,6.721438885,6.426523209
0.271067659,0.862612545,6.721438885,6.426523209
0.281067659,0.537188709,6.506084919,6.005386829
0.291067659,0.441475779,6.41037178,6.215955257
0.301067659,0.436690122,6.319444656,6.440880299
0.311067659,0.436690122,6.319444656,6.440880299
0.321067659,0.340977222,6.061019897,6.397809505
0.331067659,0.183050931,6.01316309,6.330810547
0.341067659,0.001196411,6.037091732,6.412166595
0.351067659,0.005982057,6.099305153,6.617949009
0.361067659,0.183050931,6.113661766,6.852446079
0.371067659,0.441475779,6.108876228,6.996015072
0.381067659,0.891326427,6.257231236,7.034300327
0.391067659,0.987039328,6.41037178,6.914659023
0.401067659,0.991824985,6.510870457,6.627520561
0.411067659,0.982253671,6.53958416,6.450451851
0.421067659,1.073180914,6.635297298,6.460022926
0.431067659,1.231107235,6.697510719,6.670591354
0.441067659,2.082952023,6.740581512,7.589435101
0.451067659,2.638087034,6.821937561,8.09671402
0.461067659,3.035295486,6.879364967,8.335995674
0.471067659,3.035295486,6.879364967,8.335995674
0.481067659,3.245863914,7.042077065,8.326424599
0.491067659,3.245863914,7.042077065,8.326424599
0.501067659,2.417947292,7.38664341,7.651648521
0.511067659,2.417947292,7.38664341,7.651648521
0.521067659,2.145165443,7.300501823,7.096513748
0.531067659,2.365305185,7.214360237,7.465008259
0.541067659,2.590230465,7.180860519,7.905287743
0.551067659,2.743371248,7.209574699,8.283353806
0.561067659,2.700300455,7.372286797,8.589634895
0.571067659,2.700300455,7.372286797,8.589634895
0.581067659,1.752742529,7.89870739,8.895915985
0.581067659,1.752742529,7.89870739,8.895915985
0.601067659,1.082752228,8.042277336,7.709076405
0.611067659,0.939182878,8.056633949,6.799803734
0.621067659,1.063609719,8.094919205,6.110671043
0.631067659,2.00638175,7.965706348,5.967101574
0.641067659,2.00638175,7.965706348,5.967101574
0.651067659,2.00638175,7.965706348,5.967101574
0.661067659,3.020938635,8.171489716,6.981658459
0.671067659,3.169293642,8.080561638,7.388438225
0.681067659,2.977867842,8.047062874,7.723433495
0.691067659,2.441875458,8.181060791,7.704290867
0.701067659,2.441875458,8.181060791,7.704290867
0.711067659,1.570888042,8.066205025,6.034100533
0.721067659,1.436890006,8.023134232,5.71824789
0.731067659,1.369890928,8.090133667,5.751747608
0.741067659,1.489532113,8.003992081,5.986244202
0.751067659,1.575673699,7.91306448,6.215955257
0.761067659,1.575673699,7.91306448,6.215955257
0.771067659,1.613958836,8.31027317,6.369095802
0.781067659,1.322034478,8.487341881,5.804389477
0.791067659,0.862612545,8.793622971,5.0291152
0.801067659,0.561116934,8.807980537,4.239483356
0.811067659,0.379262388,8.611768723,3.516851187
0.821067659,0.230907381,8.520841599,2.952144861
0.831067659,0.250049978,8.319844246,2.928216696
0.841067659,0.015553347,8.28155899,3.047857761
0.851067659,0.015553347,8.28155899,3.047857761
0.861067659,0.015553347,8.28155899,3.047857761
0.871067659,0.015553347,8.28155899,3.047857761
0.881067659,-1.228714466,7.195217609,0.377467781
0.891067659,-1.228714466,7.195217609,0.377467781
0.901067659,-1.228714466,7.195217609,0.377467781
0.911067659,-1.731207132,1.792224169,-13.12283802
0.921067659,-2.645265341,0.485742986,-17.18585014
0.931067659,-4.482953072,0.677168787,-20.75594139
0.941067659,-6.11485815,1.337587833,-22.27777672
0.951067659,-6.856633186,1.80658114,-23.41197586
0.961067659,-5.708078384,1.514656782,-18.86561203
0.971067659,-5.028516769,3.098705292,-13.9986105
0.981067659,-4.449453831,5.37188673,-8.030911446
0.991067659,-3.253042459,7.731209755,0.832104087
1.001067659,-0.209371984,10.51167011,14.59562016
1.011067659,6.20817852,11.56451225,29.99582672
1.021067659,6.20817852,11.56451225,29.99582672
1.031067659,6.20817852,11.56451225,29.99582672
1.041067659,9.223134995,16.43151283,26.05245399
1.051067659,9.223134995,16.43151283,26.05245399
1.061067659,3.537788391,15.18245983,10.29811001
1.071067659,2.618944407,13.47877026,7.780860901
1.081067659,2.370090723,11.66501045,6.632306099
1.091067659,1.202393413,9.1860466,4.603192329
1.101067659,0.833898664,8.535198212,4.138985157
1.111067659,0.948754191,7.965706348,4.540979385
1.121067659,0.762113988,7.73599577,5.072185993
1.131067659,0.24047868,7.568498135,5.502893925
1.141067659,-0.300299227,7.836493969,5.708676815
1.151067659,-0.932004392,8.23370266,4.411766529
1.161067659,-0.970289588,8.43948555,3.540779352
1.171067659,-0.836291492,8.568697929,3.32063961
1.181067659,-0.649651349,8.683553696,3.488137245
1.191067659,-0.400797784,8.736195564,3.837489367
1.201067659,-0.17587246,8.755337715,4.201198578
1.211067659,-0.137587309,8.822337151,4.397409916
1.221067659,-0.22372891,8.779266357,4.143770695
1.231067659,-0.376869559,8.731410027,4.057629108
1.241067659,-0.592223585,8.793622971,4.229912281
1.251067659,-0.257228434,8.92283535,4.746761799
1.261067659,0.350548506,8.937192917,5.421537876
1.271067659,0.958325446,9.004191399,5.947958946
1.281067659,1.384247899,9.080761909,5.617749214
1.291067659,1.111466169,9.219545364,5.096114159
1.301067659,0.565902531,9.281759262,4.517050743
1.311067659,0.077766739,9.353543282,4.134199142
1.321067659,-0.08015956,9.329615593,4.124628067
1.331067659,0.072981089,9.176474571,4.29691124
1.341067659,0.072981089,9.176474571,4.29691124
1.351067659,0.072981089,9.176474571,4.29691124
1.361067659,0.072981089,9.176474571,4.29691124
1.371067659,1.034895778,9.004191399,6.230311871
1.381067659,0.943968534,9.075976372,5.579464436
1.391067659,0.762113988,9.1860466,4.785047054
1.401067659,0.546759963,9.200403214,3.923630953
1.411067659,0.546759963,9.200403214,3.923630953
1.421067659,-0.419940382,9.530612946,2.799004316
1.431067659,-0.678365231,9.46361351,3.631706476
1.441067659,-0.80757767,9.396614075,4.981258392
1.451067659,-0.850648463,9.243474007,6.225526333
1.461067659,-0.754935563,9.075976372,6.771090031
1.471067659,-0.52043891,8.592626572,4.957330227
1.481067659,-0.692722142,8.803194046,3.693919897
1.491067659,-1.008574724,9.075976372,2.856431961
1.501067659,-1.348355532,9.133403778,2.454437733
1.511067659,-1.611566067,9.195617676,2.535793781
1.521067659,-1.611566067,9.195617676,2.535793781
1.531067659,-1.38185513,8.894122124,3.842274904
1.541067659,-1.38185513,8.894122124,3.842274904
1.551067659,-0.558724105,8.516056061,4.684548378
1.561067659,-0.324227482,8.583054543,3.741776466
1.571067659,-0.271585375,8.831908226,2.770290375
1.581067659,0.039481573,9.008976936,2.105085611
1.591067659,0.283549488,9.032905579,1.91365993
1.601067659,0.187836573,9.12861824,2.827718258
1.611067659,-0.195015043,9.190832138,3.32063961
1.621067659,-0.597009242,9.233902931,3.698705673
1.631067659,-0.936790049,9.31525898,3.84706068
1.641067659,-1.200000525,9.329615593,3.564707518
1.651067659,-1.200000525,9.329615593,3.564707518
1.661067659,-1.200000525,9.329615593,3.564707518
1.671067659,-1.200000525,9.329615593,3.564707518
1.681067659,-1.089930773,8.33898735,-0.560518682
1.691067659,-0.908076167,8.003992081,-1.66600275
1.701067659,-0.606580555,7.587640762,-2.599203587
1.711067659,-0.2955136,6.984649181,-3.833899975
1.721067659,0.250049978,5.8983078,-5.38923502
1.731067659,0.250049978,5.8983078,-5.38923502
1.741067659,-1.300499082,0.150747821,-15.67837238
1.751067659,-3.793820381,-1.409372568,-21.08136559
1.761067659,-7.014559746,-1.935793519,-25.44108772
1.771067659,-10.20658493,-1.088734269,-27.21177673
1.781067659,-12.32662582,0.945164919,-25.58944321
1.791067659,-8.076972961,4.644468784,-12.25663567
1.801067659,-1.482353687,5.740381718,-0.364307255
1.811067659,8.194221497,6.405586243,19.46262169
1.821067659,19.2251339,7.372286797,42.32843399
1.831067659,25.52782822,8.98026371,54.07240677
1.841067659,22.88615227,13.34477234,47.78406906
1.851067659,14.76012611,17.51306915,32.28336334
1.861067659,0.379262388,18.80997849,12.79621696
1.871067659,-2.994617462,16.57029724,12.42293739
1.881067659,-2.994617462,16.57029724,12.42293739
1.891067659,-4.344169617,11.59322548,13.93998623
1.901067659,-3.994817495,9.951749802,11.40838051
1.911067659,-3.21954298,8.726624489,7.560721397
1.921067659,-3.21954298,8.726624489,7.560721397
1.931067659,-3.21954298,8.726624489,7.560721397
1.941067659,-3.21954298,8.726624489,7.560721397
1.951067659,-3.21954298,8.726624489,7.560721397
1.961067659,1.403390527,6.908079147,-1.637288928
1.971067659,0.757328391,7.424928665,0.87517488
1.981067659,0.259621263,7.903493404,3.75134778
1.991067659,-0.195015043,8.391629219,6.369095802
2.001067659,-0.673579574,8.592626572,5.924030781
2.011067659,-0.979860902,8.769695282,5.201398373
2.021067659,-0.960718274,8.764909744,4.627120972
2.031067659,-0.893719256,8.870193481,4.277768612
2.041067659,-0.979860902,9.047262192,4.115056515
2.051067659,-0.979860902,9.047262192,4.115056515
2.061067659,-0.979860902,9.047262192,4.115056515
2.071067659,-0.979860902,9.047262192,4.115056515
2.081067659,-0.979860902,9.047262192,4.115056515
2.091067659,-0.443868607,9.487542152,6.555736065
2.101067659,-0.17587246,9.420542717,6.483951092
2.111067659,0.063409798,9.291330338,6.153741837
2.121067659,0.063409798,9.291330338,6.153741837
2.131067659,-0.104087785,9.320044518,5.397609711
2.141067659,-0.381655216,9.497113228,5.584249973
2.151067659,-0.592223585,9.377471924,5.761318684
2.161067659,-0.888933599,9.382257462,6.096313953
2.171067659,-1.28614223,9.430113792,6.125027657
2.181067659,-1.855633974,9.219545364,4.756333351
2.191067659,-2.008774519,9.248259544,4.028914928
2.201067659,-2.008774519,9.133403778,3.689134359
2.211067659,-1.946561217,8.884550095,4.129413605
2.221067659,-1.841277003,8.918049812,5.225326538
2.231067659,-1.60678041,9.085547447,6.670591354
2.241067659,-1.228714466,9.008976936,8.417351723
2.251067659,-1.228714466,9.008976936,8.417351723
2.261067659,-1.228714466,9.008976936,8.417351723
2.271067659,-1.310070395,8.913264275,4.957330227
2.281067659,-1.310070395,8.913264275,4.957330227
2.291067659,-1.578066587,9.018548965,3.789632797
2.301067659,-1.855633974,9.205188751,4.014558315
2.311067659,-1.855633974,9.205188751,4.014558315
2.321067659,-1.185643673,9.013762474,6.87158823
2.331067659,-0.860219717,8.779266357,7.144370079
2.341067659,-1.013360381,8.654839516,6.646663189
2.351067659,-1.372283816,8.750552177,5.569892883
2.361067659,-1.252642632,8.539983749,4.301696777
2.371067659,-0.104087785,7.889136314,2.368296146
2.381067659,0.541974306,7.664210796,2.05722928
2.391067659,0.876969516,7.367500782,1.951945066
2.401067659,0.876969516,7.367500782,1.951945066
2.411067659,0.613758981,6.472585201,1.851446509
2.421067659,0.245264322,5.520241737,1.095314622
2.431067659,-0.34337005,3.926621914,-0.426520646
2.441067659,-0.34337005,3.926621914,-0.426520646
2.451067659,-2.238485575,-2.658426046,-14.56810284
2.461067659,-4.478167534,-4.079762459,-21.10529327
2.471067659,-7.746763229,-4.122833252,-26.44607353
2.481067659,-11.38863945,-2.577069998,-27.43191719
2.491067659,-14.22174168,0.112462662,-23.19662094
2.501067659,-10.66600704,5.242674351,-9.011968613
2.511067659,-10.66600704,5.242674351,-9.011968613
2.521067659,8.59142971,6.798008919,4.942973614
2.531067659,19.79941177,7.343572617,15.83031654
2.541067659,24.98226547,11.29172993,28.29692268
2.551067659,24.0825634,16.27837181,36.9589386
2.561067659,20.4311161,18.92004776,37.48057556
2.571067659,20.4311161,18.92004776,37.48057556
2.581067659,20.4311161,18.92004776,37.48057556
2.591067659,0.345762879,16.50329781,15.23211098
2.601067659,-1.190429211,14.45504189,12.0975132
2.611067659,-1.563709617,12.28714466,9.235696793
2.621067659,-1.616351724,10.24367332,6.498308182
2.631067659,-1.324427366,8.018348694,3.445066452
2.641067659,-0.587437987,7.286144733,2.722434044
2.651067659,-0.348155707,7.013363361,1.774876237
2.661067659,-0.017946171,6.836294174,0.262612283
2.671067659,0.216550454,7.022934437,-0.91465646
2.681067659,0.307477713,7.190432072,-1.220937729
2.691067659,-0.046660043,7.511070251,1.133599758
2.701067659,0.302692056,7.697710514,3.65563488
2.711067659,0.867398202,7.812565804,5.967101574
2.721067659,1.044467092,7.941778183,6.88594532
2.731067659,1.092323542,8.190631866,6.914659023
2.741067659,0.809970438,8.535198212,6.125027657
2.751067659,0.388833672,8.994620323,5.086542606
2.761067659,0.388833672,8.994620323,5.086542606
2.771067659,0.388833672,8.994620323,5.086542606
2.781067659,0.13519448,9.46361351,5.507679462
2.791067659,0.422333211,9.425328255,6.622735023
2.801067659,0.642472863,9.573683739,7.608577728
2.811067659,0.83868432,9.588040352,7.953144073
2.821067659,0.83868432,9.588040352,7.953144073
2.831067659,-0.070588268,9.927821159,5.182255745
2.841067659,0.082552381,9.841679573,4.789832592
2.851067659,0.173479646,9.707681656,4.899902344
2.861067659,0.216550454,9.702896118,5.234897614
2.871067659,0.403190613,9.525827408,5.584249973
2.881067659,0.537188709,9.305686951,5.608178139
2.891067659,0.522831738,9.243474007,5.646463394
2.901067659,0.656829834,9.008976936,5.531607628
2.911067659,0.680758059,8.836693764,5.277968407
2.921067659,0.470189661,8.740981102,4.727619171
2.931067659,0.077766739,8.64526844,4.004986763
2.941067659,-0.362512618,8.535198212,3.708276987
2.951067659,-0.362512618,8.535198212,3.708276987
2.961067659,-0.362512618,8.535198212,3.708276987
2.971067659,-1.061216831,8.894122124,5.411966801
2.981067659,-0.587437987,8.812766075,5.268397331
2.991067659,-0.084945202,8.602197647,4.751547337
3.001067659,-0.003589234,8.420342445,4.086342812
3.011067659,-0.156729877,8.573483467,3.564707518
3.021067659,-0.156729877,8.573483467,3.564707518
3.031067659,-0.285942316,8.630910873,2.775076151
3.041067659,0.010767702,8.41077137,2.69850564
3.051067659,0.369691104,8.128418922,2.674577475
3.061067659,0.522831738,8.118846893,2.827718258
3.071067659,0.393619329,8.185846329,2.736790895
3.081067659,0.613758981,7.534998417,1.717448473
3.091067659,1.140179992,6.994220734,1.06660068
3.101067659,1.44646132,6.271588326,0.01375873
3.111067659,1.412961721,5.276174068,-1.555932879
3.121067659,1.125823021,3.979264021,-3.173480988
3.131067659,0.513260484,2.170290232,-5.365306377
3.141067659,-0.649651349,-0.251246363,-8.184051514
3.151067659,-6.062216282,-4.950749874,-17.18106461
3.161067659,-10.86700439,-5.582455158,-21.54557419
3.171067659,-17.00220108,-3.409772158,-22.96690941
3.181067659,-22.63490486,1.610369682,-19.61217308
3.191067659,-23.29053879,5.539384365,-12.30927753
3.201067659,-15.70050621,6.912864685,-4.302893162
3.211067659,-15.70050621,6.912864685,-4.302893162
3.221067659,40.91367722,9.525827408,28.71805954
3.231067659,46.18745804,15.81895065,34.22633743
3.241067659,38.1762886,21.87757683,31.3118782
3.251067659,26.39881516,24.50011063,23.91805649
3.261067659,15.49711609,23.77747917,17.92642975
3.271067659,0.939182878,16.47937012,14.59083462
3.281067659,-3.659822226,12.95713425,13.17428303
3.291067659,-6.717849731,10.38245773,10.71446133
3.301067659,-8.105687141,8.43948555,7.149155617
3.311067659,-7.79461956,6.908079147,3.75134778
3.321067659,-6.023931026,5.668596745,1.047458172
3.331067659,-3.549752474,4.945964336,-0.890728235
3.341067659,-3.549752474,4.945964336,-0.890728235
3.351067659,1.944168448,5.836094379,-3.44147706
3.361067659,2.652443886,6.486942291,-3.254837036
3.371067659,2.7577281,7.295716286,-1.914856315
3.381067659,2.7577281,7.295716286,-1.914856315
3.391067659,2.030309916,8.238488197,2.29651165
3.401067659,0.733400166,9.008976936,6.278168201
3.411067659,0.719043195,8.970691681,7.010372162
3.421067659,0.886540771,8.788837433,6.68016243
3.431067659,0.819541752,8.788837433,5.766104221
3.441067659,0.484546572,8.975478172,4.828117847
3.451067659,0.13519448,9.109476089,4.057629108
3.461067659,-0.07537391,9.171689034,3.693919897
3.471067659,-0.07537391,9.171689034,3.693919897
3.481067659,-0.07537391,9.171689034,3.693919897
3.491067659,0.465404004,8.874979019,4.852046013
3.501067659,0.417547554,8.846264839,5.163113117
3.511067659,-0.022731815,8.989834785,5.172684193
3.521067659,-0.58265233,9.200403214,4.952544689
3.531067659,-1.223928809,9.410971642,4.574478626
3.541067659,-1.223928809,9.410971642,4.574478626
3.551067659,-0.774078131,9.209974289,4.756333351
3.561067659,-0.214157626,9.133403778,4.947759151
3.571067659,0.226121739,9.162117958,4.899902344
3.581067659,0.288335115,9.425328255,4.69411993
3.591067659,0.288335115,9.56411171,4.80897522
3.601067659,-0.24765715,9.540184021,5.201398373
3.611067659,-0.659222662,9.521040916,5.100899696
3.621067659,-0.932004392,9.420542717,4.751547337
3.631067659,-0.932004392,9.420542717,4.751547337
3.641067659,-1.496710539,9.597611427,4.411766529
3.651067659,-1.496710539,9.597611427,4.411766529
3.661067659,-1.496710539,9.597611427,4.411766529
3.671067659,-1.496710539,9.597611427,4.411766529
3.681067659,-0.606580555,9.013762474,4.205984116
3.691067659,-0.721436024,8.92283535,3.277568817
3.701067659,-1.042074203,8.98026371,2.459223509
3.711067659,-1.338784218,9.004191399,1.880160451
3.721067659,-1.338784218,9.004191399,1.880160451
3.731067659,-0.774078131,8.243273735,1.573879123
3.741067659,-0.620937467,8.114061356,1.664806366
3.751067659,-0.63050878,7.975277901,1.803590059
3.761067659,-0.769292474,7.759923935,1.779661894
3.771067659,-1.171286702,7.487142086,1.186241865
3.781067659,-1.487139225,7.161718369,0.272183567
3.791067659,-1.487139225,7.161718369,0.272183567
3.801067659,-1.080359459,4.481756687,-6.174080849
3.811067659,-1.152144074,3.046063185,-8.96889782
3.821067659,-0.912861824,0.787238657,-11.78285694
3.831067659,-0.912861824,0.787238657,-11.78285694
3.841067659,-2.712264538,-5.103890896,-17.81277084
3.851067659,-11.43649578,-4.472185612,-18.26740646
3.861067659,-17.85883141,-0.174676046,-16.83171272
3.871067659,-22.31905365,6.190232277,-14.883955
3.881067659,-19.14138412,10.16231823,-9.988240242
3.891067659,-8.545966148,12.31585789,0.238684058
3.901067659,13.67857075,12.2297163,17.218153
3.911067659,40.82275009,8.051848412,33.11128235
3.921067659,56.22774124,12.8757782,47.69792938
3.931067659,38.81756592,18.01077652,36.15016556
3.941067659,21.23510361,18.47498322,21.89851379
3.951067659,6.356533527,17.97249031,11.98744297
3.961067659,-2.82233429,16.07258987,7.278368473
3.971067659,-7.708477974,13.03370476,5.330610752
3.981067659,-7.708477974,13.03370476,5.330610752
3.991067659,-7.708477974,13.03370476,5.330610752
4.001067659,-7.708477974,13.03370476,5.330610752
4.011067659,-3.382254839,4.926821709,-0.943370342
4.021067659,-2.003988981,5.05124855,-2.623131752
4.031067659,-2.003988981,5.05124855,-2.623131752
4.041067659,-0.601794899,6.290730953,-5.413163185
4.051067659,-0.601794899,6.290730953,-5.413163185
4.061067659,-0.601794899,6.290730953,-5.413163185
4.071067659,2.11645174,9.123832703,2.18644166
4.081067659,2.7577281,9.683753014,5.225326538
4.091067659,3.37986207,9.82732296,7.450651646
4.101067659,3.57128787,9.918250084,8.498707771
4.111067659,2.417947292,10.15753174,8.158926964
4.121067659,1.527817249,10.23888779,7.115656376
4.131067659,1.527817249,10.23888779,7.115656376
4.141067659,-0.003589234,10.69352436,4.765904427
4.151067659,-0.104087785,10.75095177,4.172484398
4.161067659,-0.070588268,10.717453,3.88056016
4.171067659,0.005982057,10.84187984,4.014558315
4.181067659,0.005982057,10.84187984,4.014558315
4.191067659,0.005982057,10.84187984,4.014558315
4.201067659,1.594816327,9.951749802,5.120042324
4.211067659,1.523031592,9.750752449,5.230112076
4.221067659,1.25503552,9.688538551,5.263611794
4.231067659,0.891326427,9.559326172,5.239683151
4.241067659,0.891326427,9.559326172,5.239683151
4.251067659,0.891326427,9.559326172,5.239683151
4.261067659,-0.319441825,9.741181374,4.31126833
4.271067659,0.307477713,9.415757179,4.119842529
4.281067659,0.905683398,8.970691681,3.65563488
4.291067659,0.991824985,8.74576664,2.909074068
4.301067659,-0.252442777,8.707481384,1.396810174
4.311067659,-1.243071318,8.975478172,1.009172916
4.321067659,-1.965703845,9.147761345,1.162313581
4.331067659,-2.386840582,9.272188187,1.760519266
4.341067659,-2.50169611,9.267401695,2.47358036
4.351067659,-2.114058733,9.080761909,3.071786165
4.361067659,-1.386640668,8.898907661,3.387638569
4.371067659,-0.185443759,8.425128937,2.138585329
4.381067659,0.029910283,8.444271088,1.262812138
4.391067659,-0.147158593,8.506484032,0.229112774
4.401067659,-0.147158593,8.506484032,0.229112774
4.411067659,-0.147158593,8.506484032,0.229112774
4.421067659,-1.726421595,9.138189316,-1.144367456
4.431067659,-1.726421595,9.138189316,-1.144367456
4.441067659,-1.726421595,9.138189316,-1.144367456
4.451067659,-1.726421595,9.138189316,-1.144367456
4.461067659,-1.726421595,9.138189316,-1.144367456
4.471067659,1.441675663,8.401200294,1.741376638
4.481067659,1.441675663,8.401200294,1.741376638
4.491067659,0.652044177,8.458627701,1.348953724
4.501067659,0.058624156,8.23370266,1.258026481
4.511067659,-0.104087785,7.922635555,1.095314622
4.521067659,-0.24765715,7.353144169,0.583250523
4.531067659,-0.496510684,6.305087566,-0.689731121
4.541067659,-0.43908295,4.577469826,-2.97726965
4.551067659,0.24047868,1.624726534,-6.083153248
4.561067659,-1.281356573,-4.850251675,-12.49591827
4.571067659,-6.732206345,-4.304687977,-15.28116322
4.581067659,-6.732206345,-4.304687977,-15.28116322
4.591067659,-20.01715851,7.022934437,-18.92782593
4.601067659,-17.76790428,8.386843681,-19.37289047
4.611067659,-17.76790428,8.386843681,-19.37289047
4.621067659,0.384048045,9.468399048,-15.14237976
4.631067659,0.384048045,9.468399048,-15.14237976
4.641067659,0.384048045,9.468399048,-15.14237976
4.651067659,33.74478149,10.14317513,41.59622955
4.661067659,25.1114769,12.50728416,40.21796417
4.671067659,15.08555031,14.3689003,33.12085342
4.681067659,7.414160728,14.97667694,23.80320168
4.691067659,7.414160728,14.97667694,23.80320168
4.701067659,-0.821934581,11.88993549,3.674777269
4.711067659,-1.42971158,10.77966595,1.463809252
4.721067659,-1.774278045,9.865608215,0.037686955
4.731067659,-1.649851203,9.162117958,-0.57966131
4.741067659,-1.448854089,8.817551613,-0.608375132
4.751067659,-0.640080035,8.941978455,0.023330022
4.761067659,-0.640080035,8.941978455,0.023330022
4.771067659,-0.640080035,8.941978455,0.023330022
4.781067659,-0.640080035,8.941978455,0.023330022
4.791067659,1.503889084,9.114261627,3.602992773
4.801067659,1.508674622,9.501898766,5.646463394
4.811067659,1.508674622,9.501898766,5.646463394
4.821067659,1.508674622,9.501898766,5.646463394
4.831067659,1.374676585,10.07139015,6.426523209
4.841067659,0.853041291,10.32502937,5.512465
4.851067659,0.518046081,10.52602673,4.421338081
4.861067659,0.388833672,10.73180962,3.622135162
4.871067659,0.489332229,10.78445148,3.172284603
4.881067659,1.417747378,10.66002464,3.358924866
4.891067659,1.417747378,10.66002464,3.358924866
4.901067659,1.417747378,10.66002464,3.358924866
4.911067659,1.417747378,10.66002464,3.358924866
4.921067659,2.32701993,10.71266651,4.095914364
4.931067659,2.121237278,10.48774147,4.115056515
4.941067659,1.704886079,10.32981491,4.210769653
4.951067659,1.704886079,10.32981491,4.210769653
4.961067659,1.704886079,10.32981491,4.210769653
4.971067659,-0.137587309,9.7698946,4.071985722
4.981067659,-0.171086818,9.722038269,3.78484726
4.991067659,-0.003589234,9.549755096,3.65563488
5.001067659,0.144765764,9.387042999,3.483351469
5.011067659,0.058624156,9.420542717,2.459223509
5.021067659,0.029910283,9.554540634,1.822732687
5.031067659,0.029910283,9.554540634,1.822732687
5.041067659,-0.147158593,9.899106979,1.387238979
5.051067659,-0.180658117,9.942177773,1.573879123
5.061067659,-0.17587246,9.970891953,1.789233088
5.071067659,-0.214157626,9.999606133,1.77009058
5.081067659,-0.214157626,9.999606133,1.77009058
5.091067659,-0.214157626,9.999606133,1.77009058
5.101067659,-0.214157626,9.999606133,1.77009058
5.111067659,0.522831738,9.023334503,3.186641455
5.121067659,0.340977222,8.932407379,3.287140131
5.131067659,-0.08015956,8.932407379,3.019144058
5.141067659,-0.08015956,8.932407379,3.019144058
5.151067659,-1.305284739,9.104690552,0.82731843
5.161067659,-1.487139225,9.200403214,0.320040017
5.171067659,-1.33399868,9.25783062,0.45882374
5.181067659,-0.95114702,9.267401695,0.927816987
5.191067659,-0.376869559,9.109476089,1.387238979
5.201067659,0.063409798,8.903693199,1.664806366
5.211067659,-0.381655216,8.946763992,0.913460016
5.221067659,-0.774078131,8.918049812,0.348753899
5.231067659,-1.118644595,8.989834785,0.171685025
5.241067659,-1.491924882,9.214759827,0.291326165
5.251067659,-1.673779488,9.329615593,0.68374908
5.261067659,-1.745564103,9.276973724,1.104885817
5.271067659,-1.850848317,9.415757179,1.415952802
5.281067659,-1.310070395,9.075976372,1.310668588
5.291067659,-1.310070395,9.075976372,1.310668588
5.301067659,-0.07537391,7.635497093,-1.168295622
5.311067659,-0.07537391,7.635497093,-1.168295622
5.321067659,-0.515653253,4.66839695,-4.566103935
5.331067659,-7.330412388,2.404786825,-6.609574318
5.331067659,-7.330412388,2.404786825,-6.609574318
5.351067659,-19.25145531,9.64068222,-11.23250771
5.361067659,-18.35175323,13.5409832,-12.72084332
5.371067659,-7.584051132,13.19163132,-9.418747902
5.381067659,10.93639565,11.0811615,2.554936409
5.391067659,31.16531944,8.0757761,20.09432602
5.401067659,31.16531944,8.0757761,20.09432602
5.411067659,31.16531944,8.0757761,20.09432602
5.421067659,31.16531944,8.0757761,20.09432602
5.431067659,-0.099302143,8.611768723,10.69053364
5.441067659,-0.099302143,8.611768723,10.69053364
5.441067659,-7.028916359,8.640482903,4.268197536
5.461067659,-10.59422207,6.549155712,-4.087539196
5.471067659,-8.77089119,5.903093338,-3.45583415
5.481067659,-6.090929985,5.338387489,-2.383849621
5.491067659,-3.056830883,5.079962254,-1.814357758
5.501067659,-0.309870541,5.20917511,-2.259422779
5.511067659,1.661815286,5.740381718,-3.398406267
5.521067659,2.791227579,6.73100996,-4.140181541
5.531067659,2.791227579,6.73100996,-4.140181541
5.541067659,2.791227579,6.73100996,-4.140181541
5.551067659,2.791227579,6.73100996,-4.140181541
5.561067659,2.542374134,10.3776722,7.005586624
5.571067659,2.432304144,10.09531879,8.417351723
5.581067659,2.250449657,9.97567749,8.426922798
5.591067659,2.250449657,9.97567749,8.426922798
5.601067659,0.891326427,9.899106979,3.669991732
5.611067659,0.24047868,10.29153061,2.358724833
5.621067659,-0.041874398,10.46859932,1.908874273
5.631067659,-0.372083932,10.62173939,2.176870346
5.641067659,-0.754935563,10.88495064,2.741576433
5.651067659,-0.721436024,10.92323494,3.349353552
5.661067659,0.24047868,10.77488041,3.12921381
5.671067659,0.24047868,10.77488041,3.12921381
5.681067659,1.676172256,10.23410225,2.081157446
5.691067659,1.925025821,10.16710377,1.837089539
5.701067659,1.690529227,10.13838959,1.966302037
5.711067659,1.044467092,10.18624592,2.526222467
5.721067659,1.044467092,10.18624592,2.526222467
5.731067659,1.044467092,10.18624592,2.526222467
5.741067659,1.044467092,10.18624592,2.526222467
5.751067659,1.044467092,10.18624592,2.526222467
5.761067659,0.699900627,9.918250084,2.133799553
5.771067659,1.058824062,9.722038269,1.928016901
5.781067659,1.058824062,9.722038269,1.928016901
5.791067659,1.058824062,9.722038269,1.928016901
5.801067659,1.058824062,9.722038269,1.928016901
5.811067659,-0.95114702,9.693324089,0.889531791
5.821067659,-0.860219717,9.616754532,1.219741344
5.831067659,-0.611366212,9.320044518,1.880160451
5.841067659,-0.463011175,9.090332985,2.679363251
5.851067659,-0.463011175,9.090332985,2.679363251
5.861067659,-0.463011175,9.090332985,2.679363251
5.871067659,-0.108873427,8.946763992,3.110071182
5.881067659,-0.171086818,9.171689034,2.286940336
5.891067659,-0.448654234,9.611968994,1.554736495
5.901067659,-0.692722142,9.985248566,1.253240824
5.911067659,-0.692722142,9.985248566,1.253240824
5.921067659,0.049052864,9.894321442,3.535993576
5.931067659,0.872183859,9.501898766,4.450051785
5.941067659,1.417747378,8.975478172,4.220340729
5.951067659,1.537388563,8.26241684,2.79421854
5.961067659,1.288534999,7.214360237,0.157328084
5.971067659,0.714257538,5.630311489,-3.465405464
5.981067659,-2.946761131,2.14157629,-13.60140228
5.991067659,-6.94756031,0.859023333,-20.64587212
6.001067659,-12.52762318,0.945164919,-24.27339172
6.011067659,-12.52762318,0.945164919,-24.27339172
6.021067659,-22.61097717,9.79860878,-19.35374832
6.031067659,-17.51426506,9.133403778,-11.60100269
6.041067659,-17.51426506,9.133403778,-11.60100269
6.051067659,-17.51426506,9.133403778,-11.60100269
6.061067659,35.55854034,6.501298904,30.10111046
6.071067659,32.33301544,11.87557888,36.56651688
6.081067659,24.49412918,15.05803299,33.66641617
6.091067659,16.05703545,15.95294857,27.8470726
6.101067659,8.59142971,15.58923912,21.71187401
6.111067659,-0.089730851,11.21515942,12.29372501
6.121067659,-3.458825111,9.841679573,9.125627518
6.131067659,-6.200999737,8.851051331,5.531607628
6.141067659,-7.756334782,7.999206066,1.746162295
6.151067659,-8.249256134,7.530212879,-0.991226792
6.161067659,-7.014559746,6.812366009,-2.154138565
6.171067659,-3.018545866,6.491727829,-1.847857237
6.181067659,-1.28614223,6.573083878,-2.479562521
6.191067659,0.025124637,6.88893652,-3.321835995
6.201067659,1.149751306,7.57806921,-3.116053343
6.211067659,2.322234392,8.118846893,-2.278565407
6.221067659,3.346362352,8.41077137,-0.991226792
6.231067659,3.576073408,8.874979019,0.650249541
6.241067659,3.576073408,8.874979019,0.650249541
6.251067659,1.71924305,10.02353382,4.201198578
6.261067659,0.690329313,9.970891953,4.47397995
6.271067659,-0.491725057,9.923035622,4.172484398
6.281067659,-1.506281853,9.980463028,3.894917011
6.291067659,-2.114058733,10.02353382,3.55992198
6.301067659,-1.735992789,9.779465675,3.229712248
6.311067659,-1.142572761,9.597611427,3.339782238
6.321067659,-1.142572761,9.597611427,3.339782238
6.331067659,0.092123672,9.449256897,3.095714331
6.341067659,0.250049978,9.530612946,2.722434044
6.351067659,0.120837547,9.56411171,2.162513494
6.361067659,-0.644865692,9.616754532,1.061815023
6.371067659,-1.013360381,9.62154007,1.013958573
6.381067659,-1.176072359,9.62154007,1.267597795
6.391067659,-0.874576688,9.473184586,2.038086653
6.401067659,-0.43908295,9.372686386,2.837289333
6.411067659,0.001196411,9.310472488,3.435495138
6.421067659,0.187836573,9.248259544,3.550350666
6.431067659,0.187836573,9.248259544,3.550350666
6.441067659,0.187836573,9.248259544,3.550350666
6.451067659,0.187836573,9.248259544,3.550350666
6.461067659,0.187836573,9.248259544,3.550350666
6.471067659,-1.563709617,9.985248566,1.124028444
6.481067659,-1.113858938,9.951749802,1.975873351
6.491067659,-1.113858938,9.951749802,1.975873351
6.501067659,-0.400797784,9.774680138,3.229712248
6.511067659,-0.683150887,9.956535339,3.253640652
6.521067659,-0.90329057,9.755537987,3.062214851
6.531067659,-1.118644595,9.69811058,2.90428853
6.541067659,-1.42971158,9.731609344,2.832503796
6.551067659,-1.65463686,9.645467758,2.703291416
6.561067659,-1.65463686,9.645467758,2.703291416
6.571067659,-1.65463686,9.645467758,2.703291416
6.581067659,-1.65463686,9.645467758,2.703291416
6.591067659,0.015553347,8.874979019,2.41136694
6.601067659,-0.180658117,8.77448082,1.526022673
6.611067659,-0.530010223,8.520841599,0.415752947
6.621067659,-0.530010223,8.520841599,0.415752947
6.631067659,-0.530010223,8.520841599,0.415752947
6.641067659,-1.534995675,6.783652306,-6.126224041
6.651067659,-1.089930773,5.185246468,-8.672187805
6.661067659,-0.673579574,3.189632654,-11.51964664
6.671067659,-1.204786181,1.787438512,-14.13739395
6.681067659,-2.951546669,1.457229018,-15.6496582
6.691067659,-8.837890625,4.673182487,-17.55913162
6.701067659,-10.04865837,7.295716286,-18.39183235
6.711067659,-7.947760582,7.668996811,-16.96571159
6.721067659,-3.085544825,7.812565804,-11.90728378
6.731067659,2.652443886,8.228917122,-1.804786444
6.741067659,9.347561836,8.683553696,14.60040569
6.751067659,21.10110664,10.66959572,40.17967987
6.761067659,20.06740761,14.41675663,39.51447678
6.771067659,15.61675739,16.87657738,31.94358444
6.781067659,10.85025406,16.98186302,22.22872353
6.791067659,6.882954121,15.7375946,14.14098358
6.801067659,4.088137627,12.90449238,8.91505909
6.811067659,4.088137627,12.90449238,8.91505909
6.821067659,4.088137627,12.90449238,8.91505909
6.831067659,4.088137627,12.90449238,8.91505909
6.841067659,-8.316255569,6.917650223,1.171884894
6.851067659,-6.995417118,6.721438885,1.468594909
6.861067659,-4.975874901,6.55394125,1.669592023
6.871067659,-2.91804719,6.34815836,1.631306887
6.881067659,-0.151944235,6.831508636,0.889531791
6.891067659,0.690329313,7.348358154,0.0951147
6.901067659,1.063609719,8.070990562,-0.019740786
6.911067659,1.149751306,8.77448082,0.602393091
6.921067659,1.269392371,9.25783062,1.535593987
6.931067659,1.312463164,9.521040916,2.516651154
6.941067659,0.781256616,9.755537987,4.785047054
6.951067659,0.144765764,9.822537422,5.148756027
6.961067659,-0.458225548,9.726823807,4.852046013
6.971067659,-1.042074203,9.812965393,4.335196495
6.981067659,-1.276570916,9.875179291,3.981058598
6.991067659,-1.276570916,9.875179291,3.981058598
7.001067659,-0.821934581,9.836894035,4.225126743
7.011067659,-0.821934581,9.836894035,4.225126743
7.021067659,-0.821934581,9.836894035,4.225126743
7.031067659,0.656829834,10.09053326,3.765704632
7.041067659,0.757328391,10.12403297,2.976073265
7.051067659,0.795613527,10.16231823,2.440080881
7.061067659,0.891326427,10.17188931,2.416152716
7.071067659,0.891326427,10.17188931,2.416152716
7.081067659,2.221735716,9.458827972,2.69850564
7.091067659,2.575873613,9.377471924,3.067000389
7.101067659,2.470589399,9.506684303,3.454637766
7.111067659,1.532602906,9.789037704,3.019144058
7.121067659,0.498903513,10.02831936,2.306082726
7.131067659,-0.429511666,10.22453117,1.980658889
7.141067659,-1.022931695,10.04267693,2.167299032
7.151067659,-0.587437987,9.851250648,3.162713289
7.161067659,0.039481573,9.69811058,4.119842529
7.171067659,0.537188709,9.521040916,4.378267288
7.181067659,0.661615431,9.46361351,3.827918053
7.191067659,0.64725852,9.444471359,3.028715372
7.201067659,0.795613527,9.425328255,1.975873351
7.211067659,0.853041291,9.367900848,1.473380566
7.221067659,0.83868432,9.305686951,0.879960537
7.231067659,0.83868432,9.305686951,0.879960537
7.241067659,0.723828852,9.267401695,1.124028444
7.251067659,0.637687206,9.109476089,1.717448473
7.261067659,0.317048997,9.176474571,2.253440619
7.271067659,0.317048997,9.176474571,2.253440619
7.281067659,0.317048997,9.176474571,2.253440619
7.291067659,0.317048997,9.176474571,2.253440619
7.301067659,0.632901609,9.1860466,1.861017823
7.311067659,0.546759963,9.549755096,1.267597795
7.321067659,0.585045159,9.731609344,0.726819873
7.331067659,0.800399184,10.08096218,0.420538574
7.341067659,0.819541752,10.5355978,0.535394073
7.351067659,1.025324464,10.60259724,0.387039065
7.361067659,1.211964726,10.39202881,-0.397806764
7.371067659,1.178465128,9.588040352,-2.345564365
7.381067659,0.934397221,8.166703224,-5.609374523
7.391067659,-2.252842426,4.792823792,-13.87418365
7.401067659,-5.310869694,3.912265062,-18.29611969
7.411067659,-8.268398285,3.074777126,-22.23470688
7.421067659,-8.268398285,3.074777126,-22.23470688
7.431067659,-9.766305923,1.00737834,-19.4016037
7.441067659,-10.13001442,2.663211584,-12.67298698
7.451067659,-10.51765156,5.228317261,-6.896713257
7.461067659,-10.51765156,5.228317261,-6.896713257
7.471067659,-10.51765156,5.228317261,-6.896713257
7.481067659,15.22433376,11.04287624,16.03609848
7.491067659,26.51367188,10.92802143,27.80400085
7.501067659,33.36671448,11.6267252,37.41357803
7.511067659,31.87837982,13.63191032,40.00260925
7.521067659,31.87837982,13.63191032,40.00260925
7.531067659,4.734199524,12.91884899,14.44726467
7.541067659,-3.229114056,11.54058361,9.049057007
7.551067659,-8.244470596,10.03789139,6.799803734
7.561067659,-10.94836044,8.879764557,6.148955822
7.571067659,-11.89591789,7.836493969,5.65603447
7.581067659,-11.04885864,6.841079712,4.550550461
7.591067659,-5.794219971,4.936393261,0.774676323
7.601067659,-2.717050076,4.65403986,-1.173081279
7.611067659,-0.300299227,5.127819061,-3.130410194
7.621067659,1.250249863,5.874379635,-4.781457901
7.631067659,1.886740685,6.750152588,-5.839085579
7.641067659,1.886740685,6.750152588,-5.839085579
7.651067659,1.886740685,6.750152588,-5.839085579
7.661067659,1.886740685,6.750152588,-5.839085579
7.671067659,1.886740685,6.750152588,-5.839085579
7.681067659,1.896311998,9.918250084,5.254040241
7.691067659,1.149751306,9.918250084,5.857031822
7.701067659,0.31226337,10.29153061,5.761318684
7.711067659,-0.17587246,10.41117096,4.957330227
7.721067659,0.015553347,10.34895802,3.392424345
7.731067659,0.412761897,10.42552853,3.287140131
7.741067659,0.69511497,10.3346014,3.133999348
7.751067659,0.738185763,10.22931671,2.775076151
7.761067659,0.757328391,10.24845982,2.564507723
7.771067659,0.762113988,10.27717304,2.583650351
7.781067659,0.709471941,10.06660461,2.468794823
7.791067659,0.699900627,10.01874828,2.397010088
7.801067659,0.757328391,9.908679008,2.310868502
7.811067659,0.886540771,9.927821159,2.535793781
7.821067659,1.101894855,9.899106979,2.856431961
7.831067659,1.226321578,9.817750931,3.023929596
7.841067659,1.149751306,9.803394318,3.153141975
7.851067659,0.920040309,9.722038269,3.210569859
7.861067659,0.920040309,9.722038269,3.210569859
7.871067659,0.920040309,9.722038269,3.210569859
7.881067659,-0.338584393,9.789037704,2.650649309
7.891067659,-0.281156659,9.664610863,2.688934565
7.901067659,-0.171086818,9.406186104,2.564507723
7.911067659,-0.171086818,9.406186104,2.564507723
7.921067659,0.704686284,9.066405296,2.885145903
7.931067659,0.618544638,9.190832138,2.822932482
7.941067659,0.307477713,9.31525898,2.569293261
7.951067659,-0.147158593,9.482755661,2.224726915
7.961067659,-0.66400826,9.717252731,1.693520188
7.971067659,-1.214357495,9.79860878,1.033101201
7.981067659,-1.118644595,9.774680138,1.286740422
7.991067659,-0.702293456,9.745966911,1.717448473
8.001067659,-0.013160525,9.683753014,2.124228239
8.011067659,0.671186745,9.736394882,2.291725874
8.021067659,0.900897741,9.913464546,2.014158487
8.031067659,0.699900627,10.15753174,1.526022673
8.041067659,0.699900627,10.15753174,1.526022673
8.051067659,0.699900627,10.15753174,1.526022673
8.061067659,-1.51106751,10.47817039,-0.292522579
8.071067659,-1.51106751,10.47817039,-0.292522579
8.081067659,-1.616351724,10.32502937,0.01375873
8.091067659,-0.984646499,9.980463028,0.688534737
8.101067659,-0.984646499,9.980463028,0.688534737
8.111067659,0.675972402,8.865407944,1.10010016
8.121067659,0.809970438,8.161917686,-0.393021107
8.131067659,0.690329313,7.286144733,-2.781058073
8.141067659,0.144765764,6.333801746,-5.992226124
8.151067659,-0.228514567,5.022534847,-9.940383911
8.161067659,-1.290927768,3.682554007,-13.93161201
8.171067659,-5.325226784,2.490928411,-20.92822456
8.181067659,-7.000202656,2.734996319,-20.46880341
8.191067659,-8.124829292,4.146761417,-17.11885071
8.201067659,-7.392625332,5.357530117,-11.69192982
8.211067659,-4.176671982,6.506084919,-5.518447399
8.221067659,0.671186745,7.377072334,0.918245673
8.231067659,13.46800232,7.070790768,17.16551208
8.241067659,18.16750526,7.755138397,24.59283257
8.251067659,18.46900177,9.817750931,27.40679169
8.261067659,18.46900177,9.817750931,27.40679169
8.271067659,18.46900177,9.817750931,27.40679169
8.281067659,2.24566412,14.59861088,19.19462585
8.291067659,-2.16670084,13.91426373,16.26102448
8.301067659,-2.16670084,13.91426373,16.26102448
8.311067659,-2.16670084,13.91426373,16.26102448
8.321067659,-7.110272408,9.6693964,6.18245554
8.331067659,-6.06700182,8.965906143,3.588635683
8.341067659,-3.951746702,8.458627701,1.48295188
8.351067659,-1.496710539,8.066205025,-0.570089996
8.361067659,2.193022013,8.319844246,-3.953541279
8.371067659,3.705285788,8.324629784,-4.747958183
8.381067659,4.638486862,8.425128937,-4.714458942
8.391067659,4.552345276,8.664410591,-3.90568471
8.401067659,3.690928936,8.92283535,-2.388635159
8.411067659,2.417947292,8.999405861,-0.38823548
8.421067659,-0.43908295,9.339186668,3.971487284
8.431067659,-0.43908295,9.339186668,3.971487284
8.441067659,-2.152343988,9.549755096,6.144170284
8.451067659,-2.434697151,9.817750931,5.813961029
8.461067659,-2.099701881,10.01396275,4.799404144
8.471067659,-2.099701881,10.01396275,4.799404144
8.481067659,-0.860219717,10.06660461,2.674577475
8.491067659,-0.860219717,10.06660461,2.674577475
8.501067659,-0.860219717,10.06660461,2.674577475
8.511067659,1.738385677,9.616754532,1.741376638
8.521067659,2.039881229,9.607182503,1.664806366
8.531067659,2.02073884,9.683753014,1.746162295
8.541067659,1.771885157,9.808179855,2.152942181
8.551067659,1.771885157,9.808179855,2.152942181
8.561067659,0.460618347,9.64068222,3.856631994
8.571067659,-0.108873427,9.535398483,4.024129391
8.581067659,-0.333798766,9.310472488,4.057629108
8.591067659,-0.17587246,9.056833267,3.947559118
8.601067659,0.159122705,8.937192917,3.650849104
8.611067659,0.45583272,9.018548965,3.507279873
8.621067659,0.144765764,9.468399048,3.047857761
8.631067659,-0.348155707,9.789037704,2.947359324
8.641067659,-0.740578592,9.913464546,2.818146944
8.651067659,-0.817148924,9.836894035,2.708076954
8.661067659,-0.549152792,9.568898201,2.722434044
8.671067659,-0.257228434,9.305686951,2.79421854
8.681067659,0.068195447,9.214759827,2.526222467
8.691067659,0.26440689,9.147761345,2.109871387
8.701067659,0.369691104,9.219545364,1.588235974
8.711067659,0.302692056,9.387042999,1.119242787
8.721067659,0.044267219,9.607182503,0.841675341
8.731067659,-0.400797784,9.856036186,0.745962441
8.741067659,-0.888933599,10.13360405,0.846460998
8.751067659,-0.888933599,10.13360405,0.846460998
8.761067659,-0.888933599,10.13360405,0.846460998
8.771067659,-0.324227482,9.932606697,0.171685025
8.781067659,0.120837547,9.741181374,0.075972117
8.791067659,0.388833672,9.683753014,-0.077168532
8.801067659,0.317048997,9.812965393,-0.172881439
8.811067659,0.317048997,9.812965393,-0.172881439
8.821067659,0.317048997,9.812965393,-0.172881439
8.831067659,-0.793220699,10.10488987,-0.661017239
8.841067659,-0.869791031,10.01874828,-0.574875653
8.851067659,-1.056431174,9.899106979,-0.646660328
8.861067659,-1.094716311,9.717252731,-1.2352947
8.871067659,-1.094716311,9.717252731,-1.2352947
8.881067659,-1.094716311,9.717252731,-1.2352947
8.891067659,-1.094716311,9.717252731,-1.2352947
8.901067659,-1.094716311,9.717252731,-1.2352947
8.911067659,0.331405938,3.046063185,-14.32403469
8.921067659,0.331405938,3.046063185,-14.32403469
8.931067659,-2.520838737,2.845066071,-15.74058533
8.941067659,-2.520838737,2.845066071,-15.74058533
8.951067659,-2.520838737,2.845066071,-15.74058533
8.961067659,-9.670592308,11.42094231,0.133399859
8.971067659,-2.176272154,10.55952644,12.68614769
8.981067659,9.046066284,6.865008354,26.53101921
8.991067659,16.41596031,6.501298904,36.96851349
9.001067659,16.41596031,6.501298904,36.96851349
9.011067659,7.749155998,14.7326088,17.68714714
9.021067659,2.939582586,15.40259933,10.11625576
9.031067659,0.125623181,14.03869057,6.713662148
9.041067659,-1.621137381,12.00479126,5.139184952
9.051067659,-3.085544825,10.57388306,4.009772778
9.061067659,-4.19581461,9.549755096,2.37786746
9.071067659,-3.133401155,8.334200859,0.066400826
9.081067659,-3.133401155,8.334200859,0.066400826
9.091067659,0.613758981,7.812565804,-0.330807716
9.101067659,1.925025821,7.688138962,-0.661017239
9.111067659,2.642872572,8.018348694,-0.780658364
9.121067659,2.915654421,8.463413239,-0.637089014
9.131067659,3.135794163,9.085547447,-0.086739823
9.141067659,2.776870728,9.2865448,0.68374908
9.151067659,1.968096614,9.473184586,1.679163337
9.161067659,1.968096614,9.473184586,1.679163337
9.171067659,1.968096614,9.473184586,1.679163337
9.181067659,-0.300299227,9.927821159,5.234897614
9.191067659,-0.415154725,10.052248,6.03888607
9.201067659,-0.415154725,10.052248,6.03888607
9.211067659,-0.415154725,10.052248,6.03888607
9.221067659,0.039481573,9.726823807,2.535793781
9.231067659,0.632901609,9.540184021,1.918445587
9.241067659,1.140179992,9.406186104,1.573879123
9.251067659,1.523031592,9.214759827,1.631306887
9.261067659,2.283949137,9.119047165,3.344567776
9.271067659,2.508874655,9.104690552,4.100699902
9.281067659,2.432304144,9.056833267,4.110270977
9.291067659,2.011167526,9.166903496,3.540779352
9.301067659,1.523031592,9.219545364,2.851646423
9.311067659,0.771685302,9.25783062,2.138585329
9.321067659,-0.233300209,9.415757179,1.750947952
9.331067659,-0.233300209,9.415757179,1.750947952
9.341067659,-0.233300209,9.415757179,1.750947952
9.351067659,-0.233300209,9.415757179,1.750947952
9.361067659,0.50368917,10.07617569,6.187241077
9.371067659,0.575473845,10.36810017,5.957530022
9.381067659,0.331405938,10.50688457,4.617549419
9.391067659,0.331405938,10.50688457,4.617549419
9.401067659,0.331405938,10.50688457,4.617549419
9.411067659,0.537188709,10.33938694,1.023529887
9.421067659,0.580259502,10.3154583,1.454237938
9.431067659,0.64725852,10.07139015,2.291725874
9.441067659,0.608973384,10.20060253,3.411566973
9.451067659,0.293120772,10.18146038,5.244469166
9.461067659,-0.065802626,10.13838959,5.033900738
9.471067659,-0.386440843,9.918250084,3.933202267
9.481067659,-0.348155707,9.616754532,2.39222455
9.491067659,-0.262014091,9.248259544,1.090528965
9.501067659,-0.563509762,9.075976372,0.439681172
9.511067659,-0.979860902,8.999405861,0.750748098
9.521067659,-1.319641709,8.92283535,2.928216696
9.531067659,-1.616351724,9.032905579,3.550350666
9.541067659,-1.616351724,9.032905579,3.550350666
9.551067659,-1.616351724,9.032905579,3.550350666
9.561067659,-3.473181963,8.874979019,0.961316526
9.571067659,-3.980460405,8.693124771,-0.57966131
9.581067659,-3.980460405,8.693124771,-0.57966131
9.591067659,-3.980460405,8.693124771,-0.57966131
9.601067659,-3.980460405,8.693124771,-0.57966131
9.611067659,-0.774078131,6.032305717,-5.427519798
9.621067659,0.293120772,4.98903513,-6.542575359
9.631067659,0.417547554,3.543770313,-8.672187805
9.641067659,-0.836291492,2.356930256,-11.95992565
9.651067659,-6.650850773,2.409572363,-19.92802429
9.661067659,-9.785448074,2.926422119,-22.51705933
9.671067659,-11.93898869,4.094119549,-21.24407768
9.681067659,-12.34576797,5.448457241,-15.86022663
9.691067659,-10.62293625,7.563712597,-6.671787739
9.701067659,-7.095915318,10.67916775,4.923830986
9.711067659,-7.095915318,10.67916775,4.923830986
9.721067659,-7.095915318,10.67916775,4.923830986
9.731067659,19.45005798,12.71306705,27.71785927
9.741067659,18.15314865,15.2351017,20.58724785
9.751067659,15.59282875,15.98644829,15.85424423
9.761067659,11.68774223,14.9718914,14.90190125
9.771067659,6.189035892,13.67498112,16.13659859
9.781067659,6.189035892,13.67498112,16.13659859
9.791067659,-7.416553974,9.540184021,10.20718288
9.801067659,-8.445467949,8.544769287,5.091328144
9.811067659,-7.727620602,7.621140003,0.650249541
9.821067659,-6.655636311,6.807580471,-2.580060959
9.831067659,-5.081159115,6.285944939,-3.766901016
9.841067659,-1.027717352,6.20458889,-1.661217093
9.851067659,0.958325446,6.836294174,0.611964405
9.861067659,1.972882271,7.506284714,1.999801517
9.871067659,1.972882271,7.506284714,1.999801517
9.881067659,1.757528186,9.281759262,2.004587173
9.891067659,1.030110121,9.616754532,1.157527924
9.901067659,1.030110121,9.616754532,1.157527924
9.911067659,1.030110121,9.616754532,1.157527924
9.921067659,1.030110121,9.616754532,1.157527924
9.931067659,-0.678365231,10.57388306,6.527021885
9.941067659,-0.12801601,10.71266651,6.718447685
9.951067659,-0.12801601,10.71266651,6.718447685
9.961067659,0.154337063,10.99501991,4.110270977
9.971067659,0.154337063,10.99501991,4.110270977
9.981067659,0.154337063,10.99501991,4.110270977
9.991067659,0.714257538,10.07139015,2.621935368
10.00106766,0.714257538,10.07139015,2.621935368
10.01106766,0.699900627,9.367900848,4.741976261
10.02106766,0.848255634,9.334401131,6.048457623
10.03106766,0.848255634,9.334401131,6.048457623
10.04106766,1.417747378,9.64068222,5.282754421
10.05106766,1.159322619,9.784252167,3.861417532
10.06106766,0.853041291,9.79860878,2.612364054
10.07106766,0.666401088,9.688538551,1.779661894
10.08106766,0.64725852,9.46361351,1.784447432
10.09106766,0.929611623,9.401400566,2.420938253
10.10106766,1.633101463,9.032905579,3.64127779
10.11106766,1.518245935,9.071190834,3.760919094
10.12106766,1.092323542,9.387042999,3.54556489
10.13106766,0.474975288,9.473184586,3.052643538
10.14106766,-0.266799718,9.602396965,2.406581402
10.15106766,-0.266799718,9.602396965,2.406581402
10.16106766,-0.266799718,9.602396965,2.406581402
10.17106766,-0.266799718,9.602396965,2.406581402
10.18106766,-0.266799718,9.602396965,2.406581402
10.19106766,0.364905447,9.473184586,3.105285645
10.20106766,0.364905447,9.473184586,3.105285645
10.21106766,0.40797627,9.233902931,2.574079037
10.22106766,0.096909314,9.267401695,1.971087694
10.23106766,0.096909314,9.267401695,1.971087694
10.24106766,-0.190229401,9.276973724,-0.278165638
10.25106766,0.101694964,8.994620323,-0.871585667
10.26106766,0.345762879,8.764909744,-1.067797065
10.27106766,0.451047063,8.650053978,-0.91465646
10.28106766,0.451047063,8.367700577,-0.565304339
10.29106766,0.74297142,7.946564198,0.525822759
10.30106766,0.910468996,7.568498135,0.688534737
10.31106766,1.054038405,7.113861561,0.367896467
10.32106766,1.484746456,6.601797581,-0.302093863
10.33106766,2.408375978,5.697310925,-1.412363529
10.34106766,3.466003656,4.472185612,-3.240479946
10.35106766,4.384847641,3.194418192,-6.217151642
10.36106766,4.384847641,3.194418192,-6.217151642
10.37106766,4.198207378,-0.868594646,-19.86102676
10.38106766,4.198207378,-0.868594646,-19.86102676
10.39106766,-2.185843468,2.23728919,-22.61277199
10.40106766,-6.837490559,6.23330307,-22.04806519
10.41106766,-8.928817749,9.119047165,-17.90369797
10.42106766,-5.406582832,11.70329571,-0.522233546
10.43106766,1.451246977,11.09073257,20.82174492
10.44106766,13.96570969,7.640282631,44.81697083
10.45106766,25.43211555,3.419343472,56.9629364
10.46106766,25.27897453,9.391828537,52.28736115
10.47106766,19.1246357,14.5890398,34.16891098
10.48106766,4.796412945,17.64706612,5.842674732
10.49106766,-0.601794899,15.2542448,3.296711445
10.50106766,-0.601794899,15.2542448,3.296711445
10.51106766,-7.679764271,9.923035622,4.406980991
10.52106766,-8.895318031,8.161917686,4.253840446
10.53106766,-8.986245155,6.678368092,2.48793745
10.54106766,-8.282755852,6.04187727,1.028315544
10.55106766,-8.282755852,6.04187727,1.028315544
10.56106766,-1.506281853,6.20458889,1.48295188
10.57106766,0.762113988,6.817151546,1.06660068
10.58106766,2.738585472,7.420143127,0.377467781
10.59106766,3.992424488,8.33898735,0.324825674
10.60106766,4.872983456,9.138189316,1.272383451
10.61106766,4.480560303,10.26281643,3.196212769
10.62106766,3.250649452,10.67438221,3.861417532
10.63106766,1.953739643,10.82752228,4.31126833
10.64106766,0.824327409,10.88495064,4.847260475
10.65106766,-0.046660043,10.85623646,5.411966801
10.66106766,-0.415154725,10.73659515,5.885745525
10.67106766,-0.52043891,10.53081226,5.928816319
10.68106766,-0.180658117,10.19103146,4.981258392
10.69106766,0.350548506,9.774680138,4.339982033
10.70106766,0.776470959,9.516255379,3.88056016
10.71106766,0.776470959,9.516255379,3.88056016
10.72106766,1.245464206,9.296115875,3.579064369
10.73106766,1.025324464,9.31525898,3.401995659
10.74106766,1.025324464,9.31525898,3.401995659
10.75106766,1.025324464,9.31525898,3.401995659
10.76106766,0.379262388,9.363115311,2.732005358
10.77106766,0.565902531,9.276973724,2.172084808
10.78106766,0.886540771,9.075976372,1.937588096
10.79106766,1.216750264,8.898907661,2.291725874
10.80106766,1.432104349,8.697910309,2.79421854
10.81106766,1.432104349,8.697910309,2.79421854
10.82106766,1.149751306,8.511270523,3.622135162
10.83106766,0.714257538,8.654839516,3.569493294
10.84106766,0.005982057,8.726624489,3.157927752
10.85106766,-0.620937467,8.836693764,2.88993144
10.86106766,-1.037288666,8.793622971,2.598007202
10.87106766,-1.008574724,8.324629784,2.109871387
10.88106766,-0.707079113,8.114061356,2.42572403
10.89106766,-0.549152792,8.157132149,2.856431961
10.90106766,-0.477368116,8.391629219,3.090928555
10.91106766,-0.372083932,8.492127419,3.239283562
10.92106766,-0.357726991,8.71705246,3.598206997
10.93106766,-0.357726991,8.71705246,3.598206997
10.94106766,-0.936790049,9.511469841,3.043072224
10.95106766,-1.262213945,9.473184586,1.923231244
10.96106766,-1.649851203,9.616754532,1.009172916
10.97106766,-1.769492388,9.449256897,0.621535659
10.98106766,-1.984846354,9.181260109,0.698105991
10.99106766,-2.109273195,9.061619759,1.19581306
11.00106766,-1.92741859,8.669196129,1.459023595
11.01106766,-1.860419631,8.602197647,0.707677305
11.02106766,-1.578066587,8.300702095,-0.795015335
11.03106766,-1.137787223,7.841279984,-2.656631231
11.04106766,-0.716650367,7.348358154,-4.566103935
11.05106766,-0.716650367,7.348358154,-4.566103935
11.06106766,-0.716650367,7.348358154,-4.566103935
11.07106766,-0.716650367,7.348358154,-4.566103935
11.08106766,-0.716650367,7.348358154,-4.566103935
11.09106766,-4.435096741,4.242474556,-14.37189102
11.10106766,-7.229913712,5.534598827,-15.22373581
11.11106766,-8.885746956,6.783652306,-14.86002636
11.12106766,-8.632107735,7.391428947,-13.31426334
11.13106766,-8.632107735,7.391428947,-13.31426334
11.14106766,1.235892892,10.36810017,14.10269833
11.15106766,9.151350021,9.626325607,29.55076218
11.16106766,15.40618896,10.08096218,39.23212051
11.17106766,16.93280983,12.58864021,38.34199142
11.18106766,15.60718536,14.71825218,28.75634384
11.19106766,10.60140038,14.41675663,11.47059345
11.20106766,6.763313293,13.00499153,9.742975235
11.21106766,2.547159672,11.51186943,9.149555206
11.22106766,-1.668993831,10.14317513,7.637291908
11.23106766,-5.296513081,9.324830055,5.761318684
11.24106766,-7.646264553,8.798408508,4.253840446
11.25106766,-8.483752251,8.26241684,2.583650351
11.26106766,-8.483752251,8.26241684,2.583650351
11.27106766,-4.267599106,6.458228111,-1.608574986
11.28106766,-2.061416626,6.467799664,-1.862214208
11.29106766,-0.147158593,6.721438885,-2.058425665
11.30106766,1.460818172,7.377072334,-1.254437327
11.31106766,2.786442041,8.051848412,-0.196809664
11.32106766,3.102294445,9.49232769,0.961316526
11.33106766,2.350948334,10.21017456,1.411167145
11.34106766,2.350948334,10.21017456,1.411167145
11.35106766,2.350948334,10.21017456,1.411167145
11.36106766,-0.34337005,10.90409279,3.540779352
11.37106766,-1.118644595,11.05723381,5.263611794
11.38106766,-1.386640668,11.05723381,6.756732941
11.39106766,-1.386640668,11.05723381,6.756732941
11.40106766,-0.472582459,11.12423229,7.039085865
11.41106766,0.015553347,10.98544884,5.603392601
11.42106766,0.293120772,10.89452171,4.234697819
11.43106766,0.384048045,10.88495064,3.287140131
11.44106766,0.580259502,10.60259724,2.990430117
11.45106766,0.747757077,10.23410225,3.516851187
11.46106766,0.747757077,10.23410225,3.516851187
11.47106766,0.632901609,10.01874828,3.741776466
11.48106766,0.317048997,9.97567749,3.679563046
11.49106766,-0.032303106,9.961320877,3.521636724
11.50106766,-0.300299227,9.745966911,3.086143017
11.51106766,-0.300299227,9.745966911,3.086143017
11.52106766,-0.955932617,9.664610863,2.081157446
11.53106766,-0.850648463,9.454042435,1.966302037
11.54106766,-0.558724105,9.166903496,2.023729801
11.55106766,-0.419940382,9.090332985,2.138585329
11.56106766,-0.262014091,9.104690552,2.310868502
11.57106766,-0.357726991,9.248259544,2.167299032
11.58106766,-0.357726991,9.248259544,2.167299032
11.59106766,-0.357726991,9.248259544,2.167299032
11.60106766,-1.262213945,9.645467758,-0.005383851
11.61106766,-1.372283816,9.6693964,0.01375873
11.62106766,-1.343569875,9.616754532,0.377467781
11.63106766,-1.094716311,9.43489933,0.726819873
11.64106766,-1.094716311,9.43489933,0.726819873
11.65106766,0.321834654,9.028120041,1.200598717
11.66106766,0.321834654,9.028120041,1.200598717
11.67106766,0.733400166,9.243474007,-0.014955142
11.68106766,1.077966571,9.2865448,-1.072582722
11.69106766,0.857826889,9.047262192,-2.513062
11.70106766,0.187836573,9.114261627,-3.886542082
11.71106766,-1.257428288,8.506484032,-6.365506649
11.72106766,-1.257428288,8.506484032,-6.365506649
11.73106766,-1.257428288,8.506484032,-6.365506649
11.74106766,-0.448654234,6.285944939,-7.705487251
11.75106766,0.891326427,6.099305153,-7.150352478
11.76106766,2.24566412,5.783452511,-7.528418064
11.77106766,2.6620152,3.395415306,-13.19940758
11.78106766,2.6620152,3.395415306,-13.19940758
11.79106766,-3.214757204,2.955136061,-21.64607239
11.80106766,-5.736792088,3.519842148,-21.38286209
11.81106766,-6.411568165,4.610969067,-16.79342842
11.82106766,-5.133800983,4.855037212,-8.715258598
11.83106766,-4.286741734,6.290730953,3.196212769
11.84106766,5.179264545,6.93679285,39.02634048
11.85106766,11.802598,6.893722057,48.66462708
11.86106766,14.13799286,10.47817039,44.61118698
11.87106766,13.20000648,13.41177082,31.60858917
11.88106766,10.59661484,15.57966805,18.79263115
11.89106766,7.811369419,15.45045567,11.10688496
11.90106766,-0.845862806,12.14357471,6.665805817
11.91106766,-5.621936798,10.52602673,4.67976284
11.92106766,-9.215956688,9.425328255,2.062014818
11.93106766,-9.215956688,9.425328255,2.062014818
11.94106766,-9.751948357,7.601997375,-2.350350142
11.95106766,-9.751948357,7.601997375,-2.350350142
11.96106766,-9.751948357,7.601997375,-2.350350142
11.97106766,-9.751948357,7.601997375,-2.350350142
11.98106766,2.513660192,6.640082836,-4.51346159
11.99106766,3.920639992,7.477570534,-2.819343328
12.00106766,4.269991875,8.372486115,-0.885942578
12.01106766,4.169493675,9.15733242,1.167099237
12.02106766,3.79621315,9.750752449,3.071786165
12.03106766,1.791027784,10.33938694,5.550750256
12.04106766,0.613758981,10.3728857,5.857031822
12.05106766,-0.472582459,10.47338486,5.813961029
12.06106766,-1.243071318,10.64088249,5.660820007
12.07106766,-1.47756803,10.72702408,5.52682209
12.08106766,-1.410568953,10.80359459,5.440680504
12.09106766,-1.037288666,10.62652493,4.875974178
12.10106766,-0.99900347,10.33938694,4.148556232
12.11106766,-0.85543412,10.09053326,3.679563046
12.12106766,-0.85543412,10.09053326,3.679563046
12.13106766,0.580259502,9.611968994,3.421138287
12.14106766,0.819541752,9.406186104,2.842075109
12.15106766,0.786042213,9.46361351,2.219941139
12.16106766,0.786042213,9.46361351,2.219941139
12.17106766,0.786042213,9.46361351,2.219941139
12.18106766,0.829113066,9.353543282,1.042672515
12.19106766,0.331405938,9.343972206,1.526022673
12.20106766,-0.252442777,9.444471359,2.870789051
12.21106766,-0.888933599,9.655039787,3.933202267
12.22106766,-0.888933599,9.655039787,3.933202267
12.23106766,-0.888933599,9.655039787,3.933202267
12.24106766,-1.592423439,9.760323524,2.588435888
12.25106766,-1.673779488,9.812965393,1.827518344
12.26106766,-1.75034976,9.889535904,1.119242787
12.27106766,-1.70249331,9.836894035,0.793818891
12.28106766,-1.75034976,9.731609344,0.913460016
12.29106766,-1.826920033,9.702896118,2.492722988
12.30106766,-1.38185513,9.372686386,3.267997503
12.31106766,-1.070788145,9.205188751,3.459423304
12.32106766,-1.04685986,9.123832703,2.71286273
12.33106766,-1.04685986,9.123832703,2.71286273
12.34106766,-1.219143152,9.114261627,0.793818891
12.35106766,-1.219143152,9.114261627,0.793818891
12.36106766,-1.219143152,9.114261627,0.793818891
12.37106766,0.096909314,8.798408508,-0.986441135
12.38106766,0.50368917,8.334200859,-1.034297585
12.39106766,0.570688188,8.319844246,-0.909870803
12.40106766,0.74297142,8.003992081,-0.933799028
12.41106766,1.288534999,7.133004189,-1.866999865
12.42106766,1.996810555,4.888536453,-6.336792469
12.43106766,1.250249863,4.304687977,-9.576674461
12.44106766,0.001196411,3.428914785,-13.34776306
12.45106766,-2.032702923,2.591426849,-16.4153614
12.46106766,-5.478367329,4.089334011,-17.15235138
12.47106766,-9.407382011,7.424928665,-14.29053497
12.48106766,-12.70469189,12.32542896,1.119242787
12.49106766,-9.51745224,13.62233925,14.8205452
12.50106766,-0.606580555,11.67458153,28.63670349
12.51106766,-0.606580555,11.67458153,28.63670349
12.52106766,17.28694725,11.13858986,32.35993576
12.53106766,18.86621094,14.25883007,23.43470764
12.54106766,18.86621094,14.25883007,23.43470764
12.55106766,18.86621094,14.25883007,23.43470764
12.56106766,18.86621094,14.25883007,23.43470764
12.57106766,-1.917847395,10.3346014,3.708276987
12.58106766,-6.234499454,8.506484032,1.492523074
12.59106766,-8.914461136,7.405786037,-0.153738856
12.60106766,-9.627521515,6.520441532,-0.421734989
12.61106766,-6.818347931,5.663811207,1.516451359
12.62106766,-6.818347931,5.663811207,1.516451359
12.63106766,-1.793420553,5.778666496,1.157527924
12.63106766,-1.793420553,5.778666496,1.157527924
12.65106766,-1.793420553,5.778666496,1.157527924
12.66106766,3.667000771,7.759923935,-3.15433836
12.67106766,3.667000771,7.759923935,-3.15433836
12.68106766,3.667000771,7.759923935,-3.15433836
12.69106766,2.465803623,10.24845982,3.086143017
12.70106766,0.786042213,10.45424175,4.828117847
12.71106766,-0.936790049,10.861022,6.005386829
12.72106766,-2.209771633,11.19601727,6.378666878
12.73106766,-2.951546669,11.50229836,6.086742401
12.74106766,-2.951546669,11.50229836,6.086742401
12.75106766,-2.46819663,11.28215885,4.052843571
12.76106766,-2.047059774,11.06680489,3.512065411
12.77106766,-1.444068432,10.82273674,3.440280676
12.78106766,-0.979860902,10.75573826,3.741776466
12.79106766,-0.66400826,10.68873882,4.115056515
12.80106766,-0.66400826,10.68873882,4.115056515
12.81106766,-0.66400826,10.68873882,4.115056515
12.82106766,0.159122705,10.90887833,2.454437733
12.83106766,0.063409798,10.91366386,1.62652123
12.84106766,-0.329013109,10.67916775,1.104885817
12.85106766,-0.850648463,10.58345413,1.636092424
12.86106766,-1.295713425,10.47338486,2.47358036
12.87106766,-1.295713425,10.47338486,2.47358036
12.88106766,-1.137787223,9.970891953,3.780061483
12.89106766,-0.888933599,9.741181374,3.239283562
12.90106766,-0.975075245,9.812965393,2.253440619
12.91106766,-1.022931695,9.750752449,1.157527924
12.92106766,-0.975075245,9.535398483,0.300897449
12.93106766,-1.070788145,9.133403778,0.133399859
12.94106766,-0.577866673,9.133403778,1.344168067
12.95106766,0.020338992,9.205188751,2.310868502
12.96106766,0.374476731,9.214759827,2.210369825
12.97106766,0.484546572,9.205188751,1.200598717
12.98106766,0.422333211,8.937192917,-0.38823548
12.99106766,-0.123230368,7.879564762,-3.766901016
13.00106766,-0.123230368,7.879564762,-3.766901016
13.01106766,-0.123230368,7.879564762,-3.766901016
13.02106766,-0.123230368,7.879564762,-3.766901016
13.03106766,1.25503552,5.740381718,-4.618745804
13.04106766,1.585245013,5.458028316,-4.728815556
13.05106766,1.221535921,5.462814331,-5.489733219
13.06106766,1.221535921,5.462814331,-5.489733219
13.07106766,-3.042474031,2.979064226,-15.41994762
13.08106766,-5.119443893,2.959921598,-18.74118423
13.09106766,-6.306283951,3.778266907,-19.43031883
13.10106766,-6.138786316,4.811966419,-15.60180187
13.11106766,-5.564508915,6.491727829,-7.604988575
13.12106766,-3.745963812,12.28235817,18.18485451
13.13106766,0.953539848,13.89512062,32.89113998
13.14106766,0.953539848,13.89512062,32.89113998
13.15106766,16.31067467,11.301301,36.33680725
13.16106766,20.16312027,11.68893814,28.12942505
13.17106766,19.13420677,12.57428265,20.63510513
13.18106766,19.13420677,12.57428265,20.63510513
13.19106766,19.13420677,12.57428265,20.63510513
13.20106766,19.13420677,12.57428265,20.63510513
13.21106766,-10.35015392,7.70728159,-1.05822587
13.22106766,-12.42233849,6.74536705,-4.618745804
13.23106766,-11.71406364,5.735595703,-6.566503525
13.24106766,-8.871390343,4.912465096,-7.049853802
13.25106766,-8.871390343,4.912465096,-7.049853802
13.26106766,2.848655462,4.687539577,-6.714858532
13.27106766,5.456831932,6.214160442,-5.37487793
13.28106766,6.476174355,8.061419487,-3.599403381
13.29106766,6.30867672,9.46361351,-1.608574986
13.30106766,5.188836098,10.48774147,0.803390205
13.31106766,3.212364435,10.96630573,3.693919897
13.32106766,3.212364435,10.96630573,3.693919897
13.33106766,3.212364435,10.96630573,3.693919897
13.34106766,-2.908475876,11.98086262,10.55653572
13.35106766,-2.401197433,11.82772255,8.670990944
13.36106766,-1.716850281,11.59322548,6.034100533
13.37106766,-0.611366212,11.56451225,4.028914928
13.38106766,-0.611366212,11.56451225,4.028914928
13.39106766,-0.611366212,11.56451225,4.028914928
13.40106766,1.456032634,10.18146038,-0.072382882
13.41106766,1.456032634,10.18146038,-0.072382882
13.42106766,1.087537885,9.511469841,1.368096352
13.43106766,0.250049978,9.501898766,1.971087694
13.44106766,-0.563509762,9.755537987,2.650649309
13.45106766,-0.893719256,9.812965393,4.033700943
13.46106766,-0.898504913,9.899106979,4.16769886
13.47106766,-0.740578592,9.784252167,3.698705673
13.48106766,-0.4869394,9.597611427,2.990430117
13.49106766,-0.156729877,9.396614075,2.492722988
13.50106766,-0.056231331,9.075976372,2.062014818
13.51106766,-0.056231331,9.075976372,2.062014818
13.52106766,-0.056231331,9.075976372,2.062014818
13.53106766,-0.290727943,9.066405296,3.602992773
13.54106766,-0.573081017,9.142974854,3.780061483
13.55106766,-1.013360381,9.12861824,3.488137245
13.56106766,-1.664208174,9.12861824,2.784647465
13.57106766,-2.410768747,9.090332985,1.085743308
13.58106766,-2.348555326,9.090332985,0.693320334
13.59106766,-2.348555326,9.090332985,0.693320334
13.60106766,-1.300499082,8.807980537,1.205384374
13.61106766,-0.640080035,8.760123253,2.081157446
13.62106766,-0.094516493,8.946763992,3.052643538
13.63106766,0.288335115,9.114261627,3.555136204
13.64106766,0.288335115,9.114261627,3.555136204
13.65106766,-0.80757767,9.678967476,1.095314622
13.66106766,-1.47756803,9.899106979,0.367896467
13.67106766,-1.735992789,9.913464546,0.343968242
13.68106766,-1.601994753,9.631111145,0.884746194
13.69106766,-1.453639746,9.281759262,1.411167145
13.70106766,-1.453639746,9.281759262,1.411167145
13.71106766,-1.453639746,9.281759262,1.411167145
13.72106766,-0.108873427,8.918049812,3.373281717
13.73106766,0.221336097,9.080761909,1.880160451
13.74106766,0.896112084,8.92283535,-0.144167557
13.75106766,2.159522533,7.999206066,-2.398206472
13.76106766,3.57128787,6.41037178,-4.585246563
13.77106766,3.57128787,6.41037178,-4.585246563
13.78106766,5.705685616,-0.318245411,-13.19940758
13.78106766,5.705685616,-0.318245411,-13.19940758
13.80106766,0.40797627,0.212961212,-20.21516418
13.81106766,-3.34875536,2.299502611,-24.44088936
13.82106766,-5.282155991,3.610769272,-25.07737923
13.83106766,-4.731806755,7.070790768,-14.23310757
13.84106766,-4.205385685,8.865407944,-2.120639086
13.85106766,-3.387040377,10.40159988,21.01795578
13.86106766,2.800798893,7.453642368,45.0275383
13.87106766,8.194221497,5.88395071,57.88656616
13.88106766,8.194221497,5.88395071,57.88656616
13.89106766,6.471388817,15.24467278,33.76691437
13.90106766,6.471388817,15.24467278,33.76691437
13.91106766,6.471388817,15.24467278,33.76691437
13.92106766,-4.703093052,13.39262867,4.761118889
13.93106766,-4.703093052,13.39262867,4.761118889
13.94106766,-8.97667408,9.707681656,4.402195454
13.95106766,-9.21117115,8.185846329,3.220141172
13.96106766,-6.095715523,6.443871498,3.32063961
13.97106766,-4.430311203,6.558726788,3.756133318
13.98106766,-3.142972469,6.573083878,3.674777269
13.99106766,-1.980060697,6.960721016,3.708276987
14.00106766,-0.865005374,7.678567886,3.78484726
14.01106766,0.101694964,8.386843681,3.588635683
14.02106766,1.077966571,8.946763992,3.631706476
14.03106766,2.776870728,9.549755096,4.761118889
14.04106766,2.776870728,9.549755096,4.761118889
14.05106766,2.776870728,9.549755096,4.761118889
14.06106766,1.680957913,9.82732296,5.914459229
14.07106766,0.26440689,10.19581699,6.608377934
14.08106766,-1.252642632,10.65523911,7.268796921
14.09106766,-1.252642632,10.65523911,7.268796921
14.10106766,-1.874776483,10.18624592,7.264011383
14.11106766,-1.147358418,9.702896118,6.718447685
14.12106766,-0.424726009,9.43489933,6.397809505
14.13106766,0.063409798,9.233902931,5.86181736
14.14106766,0.269192547,9.171689034,5.498108387
14.15106766,0.250049978,9.444471359,5.967101574
14.16106766,0.422333211,9.391828537,6.06760025
14.17106766,0.719043195,9.229117393,5.900102615
14.18106766,0.881755173,9.080761909,5.502893925
14.19106766,0.896112084,9.095118523,4.990829945
14.20106766,0.872183859,8.860622406,4.402195454
14.21106766,0.776470959,8.482556343,4.024129391
14.22106766,0.776470959,8.482556343,4.024129391
14.23106766,0.446261436,7.822137356,3.660420418
14.24106766,0.446261436,7.822137356,3.660420418
14.25106766,0.116051897,7.573283672,3.564707518
14.26106766,0.068195447,7.396214962,3.282354355
14.27106766,0.24047868,7.156932354,2.645863533
14.28106766,0.972682416,6.084948063,-0.158524498
14.29106766,0.972682416,6.084948063,-0.158524498
14.30106766,3.150151014,3.802195072,-4.058825493
14.31106766,3.437289715,2.854637384,-6.489933014
14.32106766,3.049652576,2.289931297,-9.32303524
14.33106766,2.355733871,1.146162033,-11.44307613
14.34106766,0.470189661,0.725025237,-13.74497128
14.35106766,-6.957131863,4.558327198,-18.16212273
14.36106766,-9.115457535,6.831508636,-16.89871216
14.37106766,-7.852047443,7.678567886,-12.31406307
14.38106766,-4.363312244,8.391629219,-3.498904943
14.39106766,-4.363312244,8.391629219,-3.498904943
14.40106766,9.505488396,8.941978455,33.11128235
14.41106766,9.505488396,8.941978455,33.11128235
14.42106766,9.505488396,8.941978455,33.11128235
14.43106766,8.629714966,17.34557152,13.30828094
14.44106766,5.327619553,16.91486359,6.632306099
14.45106766,2.398804665,14.78525066,5.828317642
14.46106766,-0.659222662,12.50728416,7.407580853
14.47106766,-3.34875536,10.63131142,8.379066467
14.48106766,-3.34875536,10.63131142,8.379066467
14.49106766,-3.34875536,10.63131142,8.379066467
14.50106766,-6.445067883,7.319644451,2.339582443
14.51106766,-4.669593334,6.884150982,0.525822759
14.52106766,-2.463410854,6.582654953,-1.110867858
14.53106766,-0.357726991,6.295516491,-2.182852507
14.54106766,-0.357726991,6.295516491,-2.182852507
14.55106766,3.001796007,7.348358154,2.535793781
14.56106766,3.09272337,7.889136314,3.870988846
14.57106766,2.62851572,8.516056061,4.29691124
14.58106766,1.776670814,9.095118523,3.899702787
14.59106766,0.920040309,9.415757179,3.306282759
14.60106766,-0.601794899,9.406186104,4.143770695
14.61106766,-0.927218795,9.2865448,5.665606022
14.62106766,-0.917647481,9.291330338,7.120441914
14.63106766,-0.544367135,9.262616158,7.876574039
14.64106766,-0.037088752,9.348757744,7.929215908
14.65106766,0.340977222,9.588040352,7.316653252
14.66106766,0.340977222,9.588040352,7.316653252
14.67106766,0.340977222,9.588040352,7.316653252
14.68106766,-0.056231331,9.803394318,4.119842529
14.69106766,0.403190613,9.6693964,4.225126743
14.70106766,0.886540771,9.425328255,4.732405186
14.71106766,1.245464206,9.430113792,5.550750256
14.72106766,1.412961721,9.597611427,6.297310829
14.73106766,0.910468996,10.06660461,6.287739754
14.74106766,0.417547554,10.36331463,5.904888153
14.75106766,0.039481573,10.48295593,5.359324455
14.76106766,-0.046660043,10.44467068,5.268397331
14.77106766,0.192622229,10.57866859,5.187041283
14.78106766,1.192822099,10.05703354,4.746761799
14.79106766,1.944168448,9.353543282,4.392624378
14.80106766,2.346162558,9.568898201,4.349553585
14.81106766,2.23130703,9.511469841,4.411766529
14.82106766,1.81495595,9.56411171,4.225126743
14.83106766,1.278963685,9.454042435,3.521636724
14.84106766,0.83868432,8.803194046,2.41136694
14.85106766,0.675972402,8.085348129,1.234098315
14.86106766,0.417547554,6.659225464,-1.144367456
14.87106766,0.422333211,5.936593056,-2.249851465
14.88106766,0.422333211,5.936593056,-2.249851465
14.89106766,0.422333211,5.936593056,-2.249851465
14.90106766,0.187836573,4.342973232,-6.265007973
14.91106766,-0.52043891,4.256831646,-8.155337334
14.92106766,-1.410568953,3.787838221,-10.10788059
14.93106766,-1.410568953,3.787838221,-10.10788059
14.94106766,-1.410568953,3.787838221,-10.10788059
14.95106766,-6.492924213,3.668197155,-17.8701973
14.96106766,-6.492924213,3.668197155,-17.8701973
14.97106766,-4.688735962,4.146761417,-11.0123682
14.98106766,-2.563909531,6.357729912,-1.895713687
14.99106766,-2.563909531,6.357729912,-1.895713687
15.00106766,14.49213028,12.54078388,34.18805313
15.01106766,21.93380928,11.18644619,36.43730545
15.02106766,24.32663155,11.08594704,31.06781006
15.03106766,21.87638092,11.65543938,22.18565369
15.04106766,16.85623932,11.56929779,14.03091335
15.05106766,9.940981865,11.1433754,9.508479118
15.06106766,9.940981865,11.1433754,9.508479118
15.07106766,-9.747162819,8.520841599,5.057828903
15.08106766,-12.38883877,8.228917122,3.512065411
15.09106766,-12.68554878,7.716853142,1.549950838
15.10106766,-10.94357395,7.295716286,-0.053240303
15.11106766,-7.363911629,6.793223381,-1.067797065
15.12106766,0.163908347,6.482156754,-3.699902058
15.13106766,2.953939438,7.420143127,-2.498705149
15.14106766,2.953939438,7.420143127,-2.498705149
15.15106766,2.953939438,7.420143127,-2.498705149
15.16106766,6.734599113,10.52124119,6.292525291
15.17106766,5.720042706,11.24865913,6.823731899
15.18106766,5.720042706,11.24865913,6.823731899
15.19106766,5.720042706,11.24865913,6.823731899
15.20106766,5.720042706,11.24865913,6.823731899
15.21106766,-2.051845312,11.6841526,6.996015072
15.22106766,-1.664208174,11.301301,8.044071198
15.23106766,-0.745364249,10.77009487,7.886145115
15.24106766,0.096909314,10.3346014,6.809374809
15.25106766,1.317248821,10.2723875,4.660620213
15.26106766,1.317248821,10.2723875,4.660620213
15.27106766,1.470389485,10.35374355,3.35413909
15.28106766,1.44646132,10.38245773,2.80857563
15.29106766,1.35074842,10.11446095,2.200798512
15.30106766,0.881755173,10.09531879,2.028515339
15.31106766,0.881755173,10.09531879,2.028515339
15.32106766,0.881755173,10.09531879,2.028515339
15.33106766,1.403390527,8.793622971,4.081557274
15.34106766,1.283749342,8.750552177,3.803989887
15.35106766,0.728614509,8.702695847,2.80857563
15.36106766,0.273978204,8.721838951,1.81794703
15.37106766,-0.08015956,8.520841599,1.033101201
15.38106766,-0.218943268,8.166703224,0.320040017
15.39106766,0.139980122,7.846065521,0.358325183
15.40106766,0.623330295,7.501499176,0.286540508
15.41106766,0.623330295,7.501499176,0.286540508
15.42106766,1.618744493,6.764509678,-0.570089996
15.43106766,1.585245013,6.429514408,-1.488933921
15.44106766,1.585245013,6.429514408,-1.488933921
15.45106766,1.585245013,6.429514408,-1.488933921
15.46106766,-1.903490424,4.256831646,-10.21795082
15.47106766,-3.583251953,3.586841106,-13.31904888
15.48106766,-4.856233597,2.170290232,-15.56351662
15.49106766,-6.12921524,1.80658114,-15.41994762
15.50106766,-7.359126091,3.577269793,-13.37647724
15.51106766,-7.359126091,3.577269793,-13.37647724
15.52106766,-7.359126091,3.577269793,-13.37647724
15.53106766,0.498903513,7.7838521,-2.4173491
15.54106766,8.07936573,9.109476089,8.259425163
15.55106766,15.11905003,11.85165024,20.69731712
15.56106766,15.11905003,11.85165024,20.69731712
15.57106766,15.11905003,11.85165024,20.69731712
15.58106766,15.11905003,11.85165024,20.69731712
15.59106766,15.11905003,11.85165024,20.69731712
15.60106766,2.599801779,14.50768375,10.43210888
15.61106766,-1.999203324,12.28235817,5.565107346
15.62106766,-5.100301266,10.4350996,2.492722988
15.63106766,-7.727620602,8.018348694,-0.527019203
15.64106766,-7.220342159,6.932007313,-1.024726272
15.65106766,-5.502295494,6.463014126,-0.560518682
15.66106766,-2.573480844,5.927021503,0.286540508
15.67106766,-0.24765715,5.630311489,-0.311665148
15.68106766,1.006181955,6.123233318,-1.766501307
15.69106766,1.374676585,7.032505512,-2.757129908
15.70106766,1.374676585,7.032505512,-2.757129908
15.71106766,0.862612545,9.631111145,0.071186475
15.72106766,0.862612545,9.631111145,0.071186475
15.73106766,0.862612545,9.631111145,0.071186475
15.74106766,1.470389485,10.16710377,6.632306099
15.75106766,1.532602906,10.10488987,7.177869797
15.76106766,1.532602906,10.10488987,7.177869797
15.77106766,0.460618347,10.63609695,5.770890236
15.78106766,-0.305084884,10.77009487,4.670191765
15.79106766,-0.764506817,10.72223854,3.981058598
15.80106766,-0.836291492,10.58345413,3.708276987
15.81106766,-0.817148924,10.32502937,3.741776466
15.82106766,-0.912861824,10.10010433,3.799204111
15.83106766,-0.970289588,10.13360405,4.789832592
15.84106766,-0.970289588,10.13360405,4.789832592
15.85106766,-0.970289588,10.13360405,4.789832592
15.86106766,-0.697507799,9.865608215,4.550550461
15.87106766,-0.506081998,9.722038269,4.387838364
15.88106766,-0.419940382,9.635896683,3.904488325
15.89106766,-0.419940382,9.635896683,3.904488325
15.90106766,-0.419940382,9.635896683,3.904488325
15.91106766,-1.530210137,9.688538551,2.564507723
15.92106766,-1.630708575,9.635896683,2.569293261
15.93106766,-1.735992789,9.597611427,2.71286273
15.94106766,-1.764706731,9.525827408,3.114856958
15.95106766,-1.731207132,9.449256897,3.588635683
15.96106766,-1.133001566,9.09990406,4.316053867
15.97106766,-0.58265233,8.822337151,4.225126743
15.98106766,-0.58265233,8.822337151,4.225126743
15.99106766,-0.329013109,8.539983749,2.320439816
16.00106766,-0.716650367,8.597412109,1.382453322
16.01106766,-0.716650367,8.597412109,1.382453322
16.02106766,-0.716650367,8.597412109,1.382453322
16.03106766,-2.745764017,8.707481384,2.598007202
16.04106766,-2.745764017,8.707481384,2.598007202
16.05106766,-2.248056889,8.58784008,2.047657967
16.06106766,-1.458425403,8.472985268,1.057029366
16.07106766,-0.530010223,8.329415321,0.334396958
16.08106766,0.173479646,8.118846893,0.066400826
16.09106766,0.173479646,8.118846893,0.066400826
16.10106766,0.173479646,8.118846893,0.066400826
16.11106766,0.173479646,8.118846893,0.066400826
16.12106766,-0.553938448,7.812565804,1.535593987
16.13106766,-0.85543412,7.692924976,0.822532773
16.14106766,-1.018146038,7.410571575,-0.43609193
16.15106766,-1.018146038,7.410571575,-0.43609193
16.16106766,-0.898504913,6.616154671,-5.705087185
16.17106766,-0.898504913,6.616154671,-5.705087185
16.18106766,0.561116934,4.342973232,-9.11725235
16.19106766,0.470189661,3.69212532,-9.093324661
16.20106766,-0.549152792,3.7256248,-9.232108116
16.21106766,-3.324826956,5.118247509,-10.73958588
16.22106766,-3.324826956,5.118247509,-10.73958588
16.23106766,-3.032902718,9.296115875,-10.76351452
16.24106766,-2.334198475,11.75593758,-5.312664509
16.25106766,0.130408838,14.41197109,6.488736629
16.26106766,7.131807804,15.67059517,23.31985092
16.27106766,16.72224045,15.47438431,37.38964844
16.28106766,24.65205574,14.23968792,40.38546371
16.29106766,19.86162376,14.29232979,30.86681366
16.30106766,13.89871025,12.5551405,19.2759819
16.31106766,6.844669342,11.31087303,9.613762856
16.32106766,-0.305084884,10.36810017,3.028715372
16.33106766,-5.578866005,9.032905579,-1.115653515
16.34106766,-10.49372387,6.343372822,-7.413562775
16.35106766,-9.85244751,5.137390137,-8.073982239
16.36106766,-8.254041672,4.491328239,-7.858627796
16.37106766,-8.254041672,4.491328239,-7.858627796
16.38106766,-8.254041672,4.491328239,-7.858627796
16.39106766,-8.254041672,4.491328239,-7.858627796
16.40106766,0.766899645,5.453242779,-5.776872158
16.41106766,0.766899645,5.453242779,-5.776872158
16.42106766,0.766899645,5.453242779,-5.776872158
16.43106766,5.274977684,10.50688457,1.956730723
16.44106766,5.136193752,11.11466122,4.459623337
16.45106766,4.427918434,11.53579807,6.589235306
16.46106766,3.351148129,11.80857944,7.996214867
16.47106766,0.637687206,11.60758305,9.058628082
16.48106766,-0.860219717,11.4640131,8.88634491
16.49106766,-2.090130568,11.25344467,8.21635437
16.50106766,-2.798406124,10.9806633,7.565506935
16.51106766,-3.023331404,10.61695385,6.87158823
16.52106766,-2.827120066,10.32024384,6.163312912
16.53106766,-2.224128723,10.08096218,5.354538918
16.54106766,-2.224128723,10.08096218,5.354538918
16.55106766,-2.224128723,10.08096218,5.354538918
16.56106766,0.604187727,9.578469276,0.946959555
16.57106766,0.604187727,9.578469276,0.946959555
16.58106766,0.441475779,9.741181374,0.784247637
16.59106766,0.082552381,9.741181374,1.133599758
16.60106766,-0.458225548,9.731609344,2.531008244
16.61106766,-0.429511666,9.525827408,3.378067255
16.62106766,-0.53479588,9.396614075,3.899702787
16.63106766,-0.798006356,9.396614075,4.048057556
16.64106766,-1.018146038,9.382257462,3.842274904
16.65106766,-1.176072359,9.243474007,3.602992773
16.66106766,-1.257428288,9.008976936,3.282354355
16.67106766,-1.310070395,8.831908226,3.205784082
16.68106766,-1.491924882,8.678768158,3.114856958
16.69106766,-1.812563181,8.664410591,3.028715372
16.70106766,-2.133201361,8.592626572,2.813361168
16.71106766,-2.463410854,8.487341881,2.368296146
16.72106766,-2.827120066,8.401200294,1.698305845
16.73106766,-2.827120066,8.401200294,1.698305845
16.74106766,-2.827120066,8.401200294,1.698305845
16.75106766,-2.827120066,8.401200294,1.698305845
16.76106766,-2.673979282,7.534998417,0.745962441
16.77106766,-2.008774519,6.941578388,-0.215952247
16.78106766,-1.33399868,6.195017815,-1.369292736
16.79106766,-1.33399868,6.195017815,-1.369292736
16.80106766,-2.846262455,3.888336897,-7.868198872
16.81106766,-4.028316975,2.734996319,-11.08893871
16.82106766,-4.028316975,2.734996319,-11.08893871
16.83106766,-8.87617588,2.088934183,-15.35294819
16.84106766,-11.44128132,4.185046673,-16.18564987
16.85106766,-11.4699955,6.132804394,-15.40559006
16.86106766,-11.4699955,6.132804394,-15.40559006
16.87106766,-11.4699955,6.132804394,-15.40559006
16.88106766,-11.4699955,6.132804394,-15.40559006
16.89106766,-11.4699955,6.132804394,-15.40559006
16.90106766,40.54518509,9.664610863,49.71268463
16.91106766,29.26063156,10.67438221,42.57250214
16.92106766,29.26063156,10.67438221,42.57250214
16.93106766,-6.229713917,12.25364494,11.31745243
16.94106766,-8.507680893,10.65523911,5.167898655
16.95106766,-8.440681458,8.736195564,0.176470667
16.96106766,-7.469195843,7.156932354,-3.809971809
16.97106766,-6.454638958,6.23330307,-6.585646152
16.98106766,-5.559723377,5.797809124,-7.887341499
16.99106766,-5.559723377,5.797809124,-7.887341499
17.00106766,-5.559723377,5.797809124,-7.887341499
17.01106766,-0.965503931,5.965306759,-4.599603176
17.02106766,0.436690122,6.084948063,-2.613560438
17.03106766,1.221535921,7.008577347,-0.622732103
17.04106766,1.365105271,7.965706348,1.076171994
17.05106766,1.365105271,7.965706348,1.076171994
17.06106766,1.202393413,9.860821724,5.009972572
17.07106766,1.202393413,9.860821724,5.009972572
17.08106766,1.805384636,10.29631615,6.507879257
17.09106766,2.039881229,10.35852909,6.833303452
17.10106766,1.834098577,10.42074299,6.670591354
17.11106766,1.140179992,10.54038334,6.034100533
17.12106766,1.140179992,10.54038334,6.034100533
17.13106766,1.140179992,10.54038334,6.034100533
17.14106766,0.044267219,11.02851963,3.507279873
17.15106766,0.738185763,11.03330517,3.756133318
17.16106766,1.345962763,10.84666538,3.97627306
17.17106766,1.54217422,10.62173939,4.253840446
17.18106766,1.178465128,10.22453117,4.885545731
17.19106766,0.752542734,10.10488987,5.033900738
17.20106766,0.752542734,10.10488987,5.033900738
17.21106766,0.719043195,9.745966911,5.239683151
17.22106766,0.723828852,9.588040352,4.952544689
17.23106766,0.628115952,9.62154007,4.569693089
17.24106766,0.211764798,9.722038269,3.555136204
17.25106766,0.211764798,9.722038269,3.555136204
17.26106766,0.211764798,9.722038269,3.555136204
17.27106766,0.211764798,9.722038269,3.555136204
17.28106766,0.297906429,9.588040352,3.512065411
17.29106766,0.297906429,9.588040352,3.512065411
17.30106766,0.886540771,9.382257462,3.990629911
17.31106766,0.31226337,9.631111145,3.789632797
17.32106766,-0.061016977,9.750752449,3.378067255
17.33106766,-0.061016977,9.750752449,3.378067255
17.34106766,-0.195015043,9.741181374,2.60279274
17.35106766,0.259621263,9.717252731,2.526222467
17.36106766,1.034895778,9.367900848,3.067000389
17.37106766,1.034895778,9.367900848,3.067000389
17.38106766,1.034895778,9.367900848,3.067000389
17.39106766,1.034895778,9.367900848,3.067000389
17.40106766,1.034895778,9.367900848,3.067000389
17.41106766,-0.687936485,8.554341316,0.501894534
17.42106766,-0.975075245,8.195417404,-0.014955142
17.43106766,-1.200000525,7.582854748,-1.24965167
17.44106766,-2.606980324,5.974878311,-5.729015827
17.45106766,-2.606980324,5.974878311,-5.729015827
17.46106766,-5.775077343,3.955335855,-13.86939812
17.47106766,-8.287541389,3.299702406,-17.16192245
17.48106766,-10.80957603,3.495913982,-17.8701973
17.49106766,-11.7332058,4.907679081,-14.85045528
17.50106766,-4.588237286,11.11944675,-1.517647743
17.51106766,7.050451756,13.42612743,8.048856735
17.52106766,24.0442791,14.12483215,17.26122475
17.53106766,24.0442791,14.12483215,17.26122475
17.54106766,38.09972,15.15374565,31.82394218
17.55106766,27.89193726,16.09651756,35.93002701
17.56106766,14.90369606,14.15833187,32.13500977
17.57106766,14.90369606,14.15833187,32.13500977
17.58106766,14.90369606,14.15833187,32.13500977
17.59106766,14.90369606,14.15833187,32.13500977
17.60106766,-14.48495197,3.524627686,-10.23230743
17.61106766,-13.39861012,2.14157629,-14.9844532
17.62106766,-11.29771233,1.768295884,-16.6163578
17.63106766,-2.602194548,1.80658114,-10.20837975
17.64106766,0.149551421,3.443271875,-5.633302689
17.65106766,0.149551421,3.443271875,-5.633302689
17.65106766,1.570888042,5.687739372,-1.886142492
17.67106766,4.327419758,9.1860466,3.516851187
17.68106766,5.925825119,10.35852909,6.306882381
17.69106766,5.925825119,10.35852909,6.306882381
17.70106766,5.925825119,10.35852909,6.306882381
17.71106766,5.925825119,10.35852909,6.306882381
17.72106766,3.647858143,11.38744259,8.412566185
17.73106766,2.173879385,10.89452171,7.034300327
17.74106766,0.910468996,10.18624592,5.172684193
17.75106766,-0.214157626,9.760323524,3.588635683
17.76106766,-0.214157626,9.760323524,3.588635683
17.77106766,-1.109073281,9.31525898,1.650449395
17.78106766,-0.745364249,9.339186668,1.57866478
17.79106766,-0.032303106,9.329615593,1.746162295
17.80106766,0.991824985,9.095118523,1.99501586
17.81106766,0.991824985,9.095118523,1.99501586
17.82106766,0.991824985,9.095118523,1.99501586
17.83106766,0.991824985,9.095118523,1.99501586
17.84106766,0.991824985,9.095118523,1.99501586
17.85106766,0.221336097,9.645467758,1.459023595
17.86106766,-0.573081017,9.970891953,1.72223413
17.87106766,-0.573081017,9.970891953,1.72223413
17.88106766,-0.745364249,9.942177773,2.779861689
17.89106766,-0.745364249,9.942177773,2.779861689
17.90106766,-0.745364249,9.942177773,2.779861689
17.91106766,1.240678549,9.540184021,3.555136204
17.92106766,1.231107235,9.559326172,3.062214851
17.93106766,1.068395257,9.745966911,2.406581402
17.94106766,0.752542734,9.856036186,1.717448473
17.95106766,0.752542734,9.856036186,1.717448473
17.96106766,0.092123672,9.741181374,1.033101201
17.97106766,0.005982057,9.501898766,0.745962441
17.98106766,0.005982057,9.501898766,0.745962441
17.99106766,0.149551421,9.12861824,0.19561325
18.00106766,0.149551421,9.12861824,0.19561325
18.01106766,0.74297142,8.740981102,0.056829538
18.02106766,1.116251707,8.176275253,-0.11545369
18.03106766,0.963111103,7.865208149,-0.402592421
18.04106766,0.704686284,7.448856831,-0.641874671
18.05106766,0.317048997,7.171289444,-0.512662232
18.06106766,-0.185443759,6.965506554,-0.201595306
18.07106766,-0.53479588,6.635297298,-0.086739823
18.08106766,-0.53479588,6.635297298,-0.086739823
18.09106766,-2.16670084,3.964907169,-4.762315273
18.10106766,-3.870390654,2.581855536,-9.490532875
18.11106766,-6.358926296,1.442872047,-16.69292831
18.12106766,-8.397610664,0.370887518,-24.21117783
18.13106766,-9.584450722,0.112462662,-29.4658165
18.14106766,-9.617950439,1.610369682,-29.13082123
18.15106766,-9.617950439,1.610369682,-29.13082123
18.16106766,-9.617950439,1.610369682,-29.13082123
18.17106766,-9.617950439,1.610369682,-29.13082123
18.18106766,25.53739929,11.19601727,28.53620529
18.19106766,32.77329636,12.32542896,48.73641205
18.20106766,33.96492004,13.21555901,59.56632996
18.21106766,33.96492004,13.21555901,59.56632996
18.22106766,33.96492004,13.21555901,59.56632996
18.23106766,-0.362512618,12.71785259,9.613762856
18.24106766,-4.956732273,11.45444202,1.712662816
18.25106766,-8.402397156,10.60738277,-3.326621771
18.26106766,-9.613164902,9.114261627,-5.834300041
18.27106766,-7.885547161,7.549355507,-4.714458942
18.28106766,-5.296513081,6.606583118,-3.790829182
18.29106766,-2.69312191,5.860022545,-2.828914642
18.30106766,-0.979860902,5.965306759,-1.65164578
18.31106766,-0.238085851,6.448657036,-0.603589535
18.32106766,-0.2955136,7.262216568,0.396610349
18.33106766,-0.697507799,8.319844246,1.037886858
18.34106766,-0.137587309,9.918250084,2.593221426
18.35106766,0.814756095,10.07139015,3.918845177
18.36106766,1.690529227,10.14796066,5.225326538
18.37106766,1.690529227,10.14796066,5.225326538
18.38106766,2.025524378,10.57388306,7.125227451
18.39106766,1.326820135,10.88973618,7.144370079
18.40106766,1.326820135,10.88973618,7.144370079
18.41106766,1.326820135,10.88973618,7.144370079
18.42106766,1.326820135,10.88973618,7.144370079
18.43106766,-1.84606266,12.16750336,4.852046013
18.44106766,-1.520638824,12.16271782,5.483751297
18.45106766,-0.577866673,11.92822075,6.426523209
18.46106766,0.618544638,11.61715412,7.082156658
18.47106766,0.618544638,11.61715412,7.082156658
18.47106766,1.20717907,11.78943729,7.551149845
18.49106766,0.297906429,11.65543938,6.857231617
18.50106766,-0.611366212,11.67936707,6.058028698
18.51106766,-1.372283816,11.65543938,5.397609711
18.52106766,-1.84606266,11.5836544,4.966901779
18.53106766,-1.60678041,11.31565857,3.837489367
18.54106766,-0.989432156,11.18166065,2.909074068
18.55106766,-0.333798766,11.00459099,2.18644166
18.56106766,0.183050931,10.72223854,1.602592945
18.57106766,0.350548506,10.42074299,1.143171072
18.58106766,0.422333211,10.22453117,1.085743308
18.59106766,0.297906429,9.851250648,1.262812138
18.60106766,0.297906429,9.851250648,1.262812138
18.61106766,0.297906429,9.851250648,1.262812138
18.62106766,-1.515853167,8.903693199,0.300897449
18.63106766,-2.26241374,8.788837433,-0.168095797
18.64106766,-2.989831924,8.697910309,-0.732801914
18.65106766,-3.521038532,8.449056625,-1.359721422
18.66106766,-3.521038532,8.449056625,-1.359721422
18.67106766,-4.25802803,7.487142086,-1.967498422
18.68106766,-3.903890133,7.008577347,-1.488933921
18.69106766,-3.439682484,6.659225464,-1.130010486
18.70106766,-2.922832966,6.37687254,-1.091725349
18.71106766,-2.48733902,6.089733601,-1.608574986
18.72106766,-1.951346874,5.304887772,-4.101896286
18.73106766,-1.960918188,4.907679081,-6.451648235
18.74106766,-2.606980324,4.242474556,-8.964112282
18.75106766,-3.358326674,3.6299119,-11.08893871
18.76106766,-4.889732838,3.08434844,-13.62532997
18.77106766,-6.401997089,2.471785784,-16.34357643
18.78106766,-7.186842918,1.954936147,-17.45384598
18.79106766,-7.186842918,1.954936147,-17.45384598
18.80106766,-7.186842918,1.954936147,-17.45384598
18.81106766,-7.186842918,1.954936147,-17.45384598
18.82106766,10.39083195,12.4929266,28.56013298
18.83106766,22.31665993,9.932606697,32.84328461
18.84106766,29.82055283,9.487542152,31.62294579
18.85106766,29.82055283,9.487542152,31.62294579
18.86106766,29.82055283,9.487542152,31.62294579
18.87106766,29.82055283,9.487542152,31.62294579
18.88106766,-5.655436516,8.46819973,-1.890928149
18.89106766,-10.7042923,7.123433113,-2.326421738
18.90106766,-13.39382458,6.630511761,-1.819143414
18.91106766,-13.48953724,5.917450428,-2.240280151
18.92106766,-13.48953724,5.917450428,-2.240280151
18.93106766,-6.803991318,5.458028316,-4.025325775
18.94106766,-3.999603033,5.687739372,-3.03948307
18.95106766,-1.51106751,6.23330307,-2.08235383
18.96106766,0.273978204,6.917650223,-1.340578914
18.97106766,1.140179992,7.759923935,-1.173081279
18.98106766,1.240678549,9.1860466,-1.225723386
18.99106766,0.69511497,9.702896118,-0.661017239
19.00106766,-0.142372951,10.26760197,0.578464866
19.01106766,-0.836291492,10.70788097,2.291725874
19.02106766,-0.836291492,10.70788097,2.291725874
19.03106766,-1.87956214,10.92802143,4.330410957
19.04106766,-2.147558212,10.71266651,4.464408875
19.05106766,-2.147558212,10.71266651,4.464408875
19.06106766,-2.147558212,10.71266651,4.464408875
19.07106766,-2.338984251,9.401400566,3.248854876
19.08106766,-2.602194548,9.281759262,2.502294302
19.09106766,-2.870190859,9.324830055,1.798804402
19.10106766,-2.941975355,9.229117393,1.325025558
19.11106766,-2.941975355,9.229117393,1.325025558
19.12106766,-3.028116941,8.760123253,0.841675341
19.13106766,-3.099901676,8.539983749,0.626321316
19.14106766,-3.339184046,8.492127419,0.372682124
19.14106766,-3.099901676,8.539983749,0.626321316
19.16106766,-3.745963812,8.602197647,-0.38823548
19.17106766,-3.640679598,8.563912392,-0.665802896
19.18106766,-3.640679598,8.563912392,-0.665802896
19.19106766,-3.640679598,8.563912392,-0.665802896
19.20106766,-3.640679598,8.563912392,-0.665802896
19.21106766,-1.176072359,7.965706348,-0.081954174
19.22106766,-1.774278045,8.224131584,0.052043892
19.23106766,-2.606980324,8.592626572,-0.014955142
19.24106766,-2.606980324,8.592626572,-0.014955142
19.25106766,-2.606980324,8.592626572,-0.014955142
19.26106766,-3.851248026,9.578469276,-2.345564365
19.27106766,-2.554338217,9.693324089,-2.020140409
19.28106766,-0.946361363,9.765109062,-1.273579836
19.29106766,0.484546572,9.908679008,-0.857228696
19.30106766,0.484546572,9.908679008,-0.857228696
19.31106766,1.54217422,9.927821159,-3.886542082
19.32106766,0.369691104,10.06181908,-6.427719593
19.33106766,0.369691104,10.06181908,-6.427719593
19.34106766,-0.606580555,9.090332985,-12.99841118
19.35106766,-0.625723124,7.635497093,-16.29572105
19.36106766,-1.142572761,6.491727829,-16.34357643
19.37106766,-6.914061069,8.511270523,-10.50508976
19.38106766,-9.369096756,10.61216831,-7.179066181
19.39106766,-9.751948357,13.99083424,-3.809971809
19.40106766,-5.669793129,15.93859196,-1.182652593
19.41106766,4.4518466,13.24905872,0.774676323
19.42106766,14.71705532,11.78943729,7.383652687
19.43106766,27.92543602,10.55952644,27.52164841
19.44106766,24.45584297,11.19123173,30.09632492
19.45106766,17.40180206,10.61216831,25.40639305
19.46106766,17.40180206,10.61216831,25.40639305
19.47106766,2.762513638,10.19581699,14.1744833
19.48106766,-1.755135417,9.717252731,10.23589706
19.49106766,-4.35852623,8.994620323,7.23529768
19.50106766,-4.35852623,8.994620323,7.23529768
19.51106766,-5.42572546,6.812366009,1.219741344
19.52106766,-4.841876507,6.865008354,0.750748098
19.53106766,-3.779463291,6.826723099,0.631106973
19.54106766,-2.779263496,6.788437843,0.334396958
19.55106766,-1.865205288,7.204789162,-0.192024022
19.56106766,-1.865205288,7.204789162,-0.192024022
19.57106766,1.633101463,8.583054543,-0.62751776
19.58106766,2.571087837,8.956335068,-0.259023041
19.59106766,3.049652576,9.31525898,0.698105991
19.60106766,3.207578659,9.324830055,1.660020709
19.61106766,3.016152859,9.339186668,2.612364054
19.62106766,2.484946251,9.415757179,3.516851187
19.63106766,0.814756095,9.46361351,4.210769653
19.64106766,0.034695927,9.46361351,4.067200184
19.65106766,-0.43908295,9.458827972,3.885345697
19.66106766,-0.4869394,9.430113792,3.765704632
19.67106766,-0.266799718,9.353543282,3.612564087
19.68106766,-0.084945202,9.391828537,3.397209883
19.69106766,-0.084945202,9.391828537,3.397209883
19.70106766,-0.084945202,9.391828537,3.397209883
19.71106766,0.479760945,9.722038269,3.344567776
19.72106766,0.479760945,9.722038269,3.344567776
19.73106766,0.69511497,9.793823242,4.225126743
19.74106766,0.69511497,9.793823242,4.225126743
19.75106766,0.388833672,9.64068222,3.808775425
19.76106766,-0.204586342,9.726823807,3.574278831
19.77106766,-0.750149906,9.79860878,3.162713289
19.78106766,-1.104287624,9.760323524,2.684148788
19.79106766,-1.434497118,9.841679573,2.229512453
19.80106766,-1.563709617,9.966106415,1.904088616
19.81106766,-1.310070395,9.980463028,1.880160451
19.82106766,-0.22372891,9.97567749,2.095514536
19.83106766,0.283549488,9.956535339,2.181656122
19.84106766,0.652044177,9.942177773,2.61714983
19.85106766,0.652044177,9.942177773,2.61714983
19.86106766,0.714257538,9.659825325,3.36849618
19.87106766,0.580259502,9.473184586,3.646063566
19.88106766,0.580259502,9.473184586,3.646063566
19.89106766,0.580259502,9.473184586,3.646063566
19.90106766,0.580259502,9.473184586,3.646063566
19.91106766,-0.362512618,8.669196129,2.492722988
19.92106766,-0.654437006,8.324629784,2.157727718
19.93106766,-0.668793917,7.831708431,1.990230203
19.94106766,-0.472582459,7.089933395,1.746162295
19.95106766,-0.151944235,5.434100151,0.0951147
19.96106766,-0.061016977,4.55354166,-1.374078393
19.97106766,-0.180658117,3.30927372,-3.178266764
19.98106766,-0.180658117,3.30927372,-3.178266764
19.99106766,-1.448854089,1.725225091,-5.805585861
20.00106766,-2.731407166,0.648454964,-8.796614647
20.01106766,-2.731407166,0.648454964,-8.796614647
20.02106766,-11.38385391,2.084148407,-25.53680229
20.03106766,-13.3268261,6.065805435,-25.01995087
20.04106766,-11.07757282,8.099704742,-20.02373886
20.05106766,-11.07757282,8.099704742,-20.02373886
20.06106766,5.662614822,9.64068222,8.508278847
20.07106766,24.58984184,7.334001541,29.49333382
20.08106766,24.58984184,7.334001541,29.49333382
20.09106766,24.58984184,7.334001541,29.49333382
20.10106766,15.89910984,12.96191978,36.02573776
20.11106766,3.064009428,14.34018612,21.19023895
20.12106766,-4.152743816,15.20160198,10.87238789
20.13106766,-5.487938881,12.78963661,4.842474937
20.14106766,-5.162514687,8.865407944,-2.747558594
20.15106766,-5.033302307,7.520641804,-6.446862221
20.16106766,-4.942375183,6.898507595,-8.992825508
20.17106766,-4.650450706,6.372086525,-9.80638504
20.18106766,-4.095315933,6.281159401,-9.4809618
20.19106766,-3.090330362,6.41037178,-8.002197266
20.20106766,-1.46321106,6.338587284,-5.800800323
20.21106766,-1.46321106,6.338587284,-5.800800323
20.22106766,2.647658348,7.568498135,0.865603566
20.23106766,3.131008387,8.070990562,3.03350091
20.24106766,3.351148129,8.420342445,4.828117847
20.25106766,2.997010469,8.961120605,6.517450809
20.26106766,2.240878344,9.391828537,8.369495392
20.27106766,1.661815286,9.49232769,10.86760235
20.28106766,1.594816327,9.281759262,11.01117134
20.29106766,1.575673699,9.013762474,10.58524895
20.30106766,1.575673699,9.013762474,10.58524895
20.31106766,1.130608678,8.535198212,8.292924881
20.32106766,0.809970438,8.573483467,7.134799004
20.33106766,0.809970438,8.573483467,7.134799004
20.34106766,0.446261436,8.836693764,4.464408875
20.35106766,0.446261436,8.836693764,4.464408875
20.36106766,1.312463164,9.071190834,3.693919897
20.37106766,2.030309916,9.018548965,3.110071182
20.38106766,2.776870728,9.004191399,2.674577475
20.39106766,3.652643681,8.965906143,2.866003275
20.40106766,4.576273441,8.965906143,3.272783279
20.41106766,4.236492634,9.052047729,3.349353552
20.42106766,3.394218922,9.243474007,3.602992773
20.43106766,2.250449657,9.439684868,3.933202267
20.44106766,1.164108157,9.59282589,4.143770695
20.45106766,1.164108157,9.59282589,4.143770695
20.46106766,1.164108157,9.59282589,4.143770695
20.47106766,1.164108157,9.59282589,4.143770695
20.48106766,1.164108157,9.59282589,4.143770695
20.48106766,2.288734913,9.262616158,7.704290867
20.50106766,1.877169371,9.487542152,8.316853523
20.51106766,1.537388563,9.521040916,7.776075363
20.52106766,1.322034478,9.458827972,7.010372162
20.53106766,1.322034478,9.458827972,7.010372162
20.54106766,1.183250785,9.123832703,4.8376894
20.55106766,1.20717907,8.889336586,4.48833704
20.56106766,1.226321578,8.707481384,4.406980991
20.57106766,1.460818172,8.291130066,4.497908592
20.58106766,1.652244091,7.630711555,4.277768612
20.59106766,1.470389485,4.481756687,1.564307809
20.60106766,1.073180914,1.672582984,-0.536590457
20.61106766,1.073180914,1.672582984,-0.536590457
20.62106766,1.073180914,1.672582984,-0.536590457
20.63106766,1.073180914,1.672582984,-0.536590457
20.64106766,-18.6867485,-4.299902439,-40.88436508
20.65106766,-22.69233322,-1.567298889,-43.97589111
20.66106766,-22.69233322,-1.567298889,-43.97589111
20.67106766,2.575873613,1.763510346,-10.85922718
20.68106766,24.96312141,-1.24666059,4.698905468
20.69106766,44.59862518,-1.012163997,29.12483978
20.70106766,50.73382187,4.323830605,49.09054947
20.71106766,42.78964996,9.554540634,59.15476227
20.72106766,15.37747478,13.91426373,44.97011185
20.73106766,7.385447025,13.48834133,34.57090378
20.74106766,3.710071564,10.75095177,27.7848587
20.75106766,1.49431777,7.984848976,21.71187401
20.76106766,-1.305284739,6.271588326,15.01675701
20.77106766,-4.430311203,5.434100151,7.943572998
20.78106766,-9.622735977,5.50109911,-1.541576028
20.79106766,-9.503094673,5.132604599,-4.628317356
20.80106766,-7.670193195,4.319045067,-6.494719028
20.81106766,-4.961517811,4.199403763,-7.753343582
20.82106766,-4.961517811,4.199403763,-7.753343582
20.83106766,-4.961517811,4.199403763,-7.753343582
20.84106766,2.42273283,5.132604599,-5.465805054
20.85106766,3.154936552,6.989434719,2.152942181
20.86106766,2.480160713,8.003992081,6.254240036
20.87106766,2.025524378,8.635697365,9.690333366
20.88106766,1.71924305,9.238688469,12.01615715
20.89106766,1.71924305,9.238688469,12.01615715
20.90106766,1.714457393,9.932606697,13.27478218
20.91106766,1.714457393,9.932606697,13.27478218
20.92106766,1.714457393,9.932606697,13.27478218
20.93106766,0.800399184,11.2438736,8.111070633
20.94106766,1.149751306,11.24865913,7.55593586
20.95106766,1.49431777,11.09551907,6.88594532
20.96106766,1.800599098,10.98544884,6.503093719
20.97106766,1.968096614,11.09073257,6.431309223
20.98106766,2.063809633,11.02373409,6.345167637
20.99106766,1.934597135,11.08594704,6.144170284
21.00106766,1.566102386,11.26780224,5.84746027
21.01106766,1.274178028,11.33958626,5.450251579
21.02106766,1.025324464,11.35872936,5.072185993
21.03106766,1.015753269,11.30608654,5.057828903
21.04106766,1.073180914,11.04287624,5.249254704
21.05106766,0.953539848,10.95194912,5.210969448
21.06106766,0.848255634,10.79402256,5.301896572
21.07106766,0.719043195,10.5355978,5.411966801
21.08106766,0.541974306,10.44945621,5.660820007
21.09106766,0.436690122,10.12881851,5.866602898
21.10106766,0.202193514,9.817750931,5.756533146
21.11106766,-0.171086818,9.410971642,4.880760193
21.12106766,-0.171086818,9.410971642,4.880760193
21.13106766,-0.171086818,9.410971642,4.880760193
21.14106766,1.034895778,8.678768158,3.157927752
21.15106766,1.264606714,8.606983185,2.947359324
21.16106766,1.288534999,8.382058144,2.971287489
21.17106766,1.288534999,8.382058144,2.971287489
21.18106766,1.288534999,8.382058144,2.971287489
21.19106766,-1.314856052,7.73599577,2.440080881
21.20106766,-2.142772675,7.664210796,2.363510609
21.21106766,-2.410768747,7.424928665,2.621935368
21.22106766,-2.003988981,6.965506554,3.12921381
21.23106766,-1.28614223,6.453442574,3.569493294
21.24106766,-0.08015956,5.539384365,2.69850564
21.25106766,0.125623181,5.280959606,0.980459094
21.26106766,0.422333211,4.548755646,-1.37886405
21.27106766,1.073180914,3.30927372,-3.996612072
21.28106766,1.307677627,1.490728498,-6.001797199
21.29106766,0.541974306,-0.179461703,-6.461219311
21.30106766,-5.995217323,-3.041277647,-7.169494629
21.31106766,-13.1019001,-1.926222205,-15.55394554
21.32106766,-13.1019001,-1.926222205,-15.55394554
21.33106766,-13.1019001,-1.926222205,-15.55394554
21.34106766,-17.09791374,7.965706348,-28.71925545
21.35106766,-17.09791374,7.965706348,-28.71925545
21.36106766,-17.09791374,7.965706348,-28.71925545
21.37106766,-17.09791374,7.965706348,-28.71925545
21.38106766,53.18885803,6.735795975,55.81916809
21.39106766,41.71287918,9.166903496,43.91726685
21.40106766,24.72384071,9.12861824,24.82732964
21.41106766,9.46720314,7.903493404,8.565707207
21.42106766,-3.023331404,6.740581512,0.420538574
21.43106766,-17.76311874,5.687739372,-3.599403381
21.44106766,-20.15115547,5.391029358,-6.772286415
21.45106766,-20.15115547,5.391029358,-6.772286415
21.46106766,-13.56610775,3.146561861,-10.56251717
21.47106766,-7.746763229,2.23728919,-7.96391201
21.48106766,-2.535195589,2.041077614,-4.695316315
21.49106766,-2.535195589,2.041077614,-4.695316315
21.50106766,-2.535195589,2.041077614,-4.695316315
21.51106766,3.690928936,7.57806921,-3.661616802
21.52106766,4.169493675,8.961120605,-2.680559635
21.53106766,4.863411903,10.02831936,-0.852443039
21.54106766,5.576473236,10.59302616,2.234298229
21.55106766,6.055037498,10.93759251,6.158527374
21.56106766,5.542973518,11.26301575,11.1690979
21.57106766,4.29392004,11.31565857,11.41316605
21.58106766,2.513660192,11.71765232,10.54217815
21.59106766,1.097109199,11.77986622,9.154341698
21.60106766,0.31226337,11.44008541,7.699504852
21.61106766,0.025124637,11.0811615,6.364310265
21.62106766,0.025124637,11.0811615,6.364310265
21.63106766,0.025124637,11.0811615,6.364310265
21.64106766,1.216750264,9.15733242,4.091128349
21.64106766,1.216750264,9.15733242,4.091128349
21.66106766,0.393619329,9.46361351,3.090928555
21.67106766,0.221336097,9.889535904,2.71286273
21.68106766,0.55154562,10.01396275,2.545365095
21.69106766,1.221535921,9.956535339,2.516651154
21.70106766,1.570888042,9.999606133,3.287140131
21.71106766,1.819741607,9.932606697,4.277768612
21.72106766,2.039881229,9.760323524,4.832903385
21.73106766,2.039881229,9.760323524,4.832903385
21.74106766,2.13559413,9.846465111,5.54117918
21.75106766,2.13559413,9.846465111,5.54117918
21.76106766,2.13559413,9.846465111,5.54117918
21.77106766,2.13559413,9.846465111,5.54117918
21.78106766,1.384247899,10.29153061,4.67976284
21.79106766,1.183250785,10.24845982,4.966901779
21.80106766,0.920040309,10.19103146,5.067399979
21.81106766,0.920040309,10.19103146,5.067399979
21.82106766,0.920040309,10.19103146,5.067399979
21.83106766,0.972682416,9.822537422,3.392424345
21.84106766,1.278963685,9.683753014,3.334996462
21.85106766,1.460818172,9.760323524,3.83270359
21.86106766,1.604387641,9.793823242,4.732405186
21.87106766,1.700100541,9.789037704,5.646463394
21.88106766,1.838884234,9.090332985,5.364109993
21.89106766,1.599601984,8.673981667,4.521836758
21.90106766,1.432104349,8.142775536,3.674777269
21.91106766,1.130608678,7.353144169,2.61714983
21.92106766,0.580259502,6.673582554,0.980459094
21.93106766,0.393619329,5.783452511,-1.173081279
21.94106766,0.101694964,2.127219439,-8.32762146
21.95106766,-1.807777524,0.643669307,-14.97488213
21.96106766,-6.732206345,0.763310432,-25.46501732
21.97106766,-11.75713444,1.792224169,-35.43351746
21.98106766,-13.96810246,2.529213428,-35.47180176
21.99106766,-12.91047478,4.807180882,-25.22094917
22.00106766,-7.698906898,7.630711555,-13.19940758
22.01106766,-7.698906898,7.630711555,-13.19940758
22.02106766,-7.698906898,7.630711555,-13.19940758
22.03106766,-7.698906898,7.630711555,-13.19940758
22.04106766,36.25246048,6.960721016,48.83212662
22.05106766,26.35095978,8.994620323,48.85126877
22.06106766,15.5114727,9.583254814,42.62514496
22.07106766,15.5114727,9.583254814,42.62514496
22.08106766,15.5114727,9.583254814,42.62514496
22.09106766,-7.899903774,5.931807518,5.603392601
22.10106766,-10.74736309,6.290730953,0.937388241
22.11106766,-10.74736309,6.290730953,0.937388241
22.12106766,-11.93898869,5.682953835,-8.088338852
22.13106766,-10.05344391,5.448457241,-10.25145054
22.14106766,-2.626122952,5.084748268,-8.045268059
22.15106766,0.589830756,5.343173027,-6.188437462
22.16106766,3.212364435,6.108876228,-4.958526611
22.17106766,5.456831932,7.209574699,-3.934398651
22.18106766,6.882954121,8.200202942,-2.383849621
22.19106766,7.366304398,9.535398483,-0.402592421
22.20106766,6.595815659,11.51186943,4.306482315
22.21106766,5.911468506,11.91386414,6.306882381
22.22106766,5.485546112,11.79422283,7.637291908
22.23106766,4.97826767,11.41615677,8.474779129
22.24106766,4.274777889,11.1003046,8.934201241
22.25106766,3.312862873,10.78923702,8.804988861
22.26106766,2.331805706,10.40159988,8.125427246
22.27106766,2.331805706,10.40159988,8.125427246
22.28106766,2.331805706,10.40159988,8.125427246
22.29106766,2.331805706,10.40159988,8.125427246
22.30106766,-0.644865692,9.410971642,6.771090031
22.31106766,-0.702293456,9.348757744,6.479165554
22.32106766,-0.659222662,9.195617676,5.584249973
22.33106766,-0.008374879,8.975478172,3.521636724
22.34106766,-0.008374879,8.975478172,3.521636724
22.35106766,0.714257538,8.994620323,2.219941139
22.36106766,0.886540771,9.042476654,1.932802439
22.37106766,1.068395257,9.138189316,1.928016901
22.38106766,1.216750264,9.095118523,2.310868502
22.39106766,1.216750264,9.095118523,2.310868502
22.40106766,1.384247899,9.095118523,4.239483356
22.41106766,1.168893814,8.989834785,4.416552544
22.42106766,0.853041291,8.874979019,3.918845177
22.43106766,0.398404956,8.985049248,3.200998545
22.44106766,0.001196411,9.147761345,2.564507723
22.45106766,-0.252442777,9.25783062,2.009372711
22.46106766,-0.721436024,9.511469841,1.492523074
22.47106766,-0.860219717,9.525827408,1.612164259
22.48106766,-1.04685986,9.578469276,2.095514536
22.49106766,-1.33399868,9.6693964,2.79421854
22.50106766,-1.726421595,9.578469276,3.387638569
22.51106766,-2.35812664,9.46361351,3.54556489
22.52106766,-2.35812664,9.46361351,3.54556489
22.53106766,-2.35812664,9.46361351,3.54556489
22.54106766,-2.35812664,9.46361351,3.54556489
22.55106766,-3.63589406,8.865407944,2.081157446
22.56106766,-3.195614576,8.573483467,1.808375716
22.57106766,-2.669193745,8.291130066,1.77009058
22.58106766,-2.075773716,7.922635555,1.798804402
22.59106766,-1.597209096,7.099504948,0.789033294
22.60106766,-1.874776483,6.625725746,-0.622732103
22.61106766,-2.114058733,5.864808083,-2.422134638
22.62106766,-2.18105793,5.142175674,-4.240679741
22.63106766,-1.649851203,3.984049797,-6.786643028
22.64106766,-1.190429211,2.318645239,-9.9643116
22.65106766,-1.458425403,-0.624526739,-18.11426544
22.66106766,-2.39162612,-1.825723648,-22.60798645
22.67106766,-4.7844491,-1.945364833,-27.51805878
22.68106766,-8.153543472,-1.012163997,-30.71487045
22.69106766,-11.09192944,-0.461814761,-30.41815948
22.70106766,-12.56590843,2.648854733,-25.17309189
22.71106766,-9.828518867,5.199603558,-16.53021622
22.72106766,-9.828518867,5.199603558,-16.53021622
22.73106766,-9.828518867,5.199603558,-16.53021622
22.74106766,-9.828518867,5.199603558,-16.53021622
22.75106766,-9.828518867,5.199603558,-16.53021622
22.76106766,-9.828518867,5.199603558,-16.53021622
22.77106766,27.92065048,16.0008049,40.57688904
22.78106766,27.92065048,16.0008049,40.57688904
22.79106766,27.92065048,16.0008049,40.57688904
22.80106766,-13.40339565,8.348558426,7.326224804
22.81106766,-16.42313766,7.372286797,4.536193371
22.82106766,-16.26521111,6.329015732,0.128614217
22.83106766,-13.62353611,5.137390137,-2.54656148
22.84106766,-13.62353611,5.137390137,-2.54656148
22.85106766,-1.913061738,3.457628727,-3.001197815
22.86106766,1.010967612,4.094119549,-4.867599487
22.87106766,3.016152859,5.123033047,-6.494719028
22.88106766,3.566502094,6.467799664,-7.088139057
22.89106766,2.920439959,8.070990562,-5.87258482
22.90106766,1.963310957,9.391828537,-3.637688637
22.91106766,1.963310957,9.391828537,-3.637688637
22.92106766,0.661615431,11.02373409,4.703691006
22.93106766,0.379262388,11.04287624,6.594020844
22.94106766,-0.032303106,11.00937653,7.551149845
22.95106766,-0.553938448,11.07159042,7.852645874
22.96106766,-1.018146038,11.28215885,7.340581894
22.97106766,-1.405783296,11.32044411,5.100899696
22.98106766,-1.405783296,11.32044411,5.100899696
22.99106766,-1.405783296,11.32044411,5.100899696
23.00106766,-1.405783296,11.32044411,5.100899696
23.01106766,-0.984646499,10.77488041,2.913859844
23.02106766,-0.539581478,10.80838013,2.655434847
23.03106766,-0.151944235,10.82273674,2.291725874
23.04106766,-0.151944235,10.82273674,2.291725874
23.05106766,-0.151944235,10.82273674,2.291725874
23.06106766,-0.151944235,10.82273674,2.291725874
23.07106766,0.307477713,10.34895802,3.818346739
23.08106766,0.044267219,10.30110168,4.028914928
23.09106766,-0.108873427,10.03789139,3.65563488
23.10106766,-0.108873427,10.03789139,3.65563488
23.11106766,-0.108873427,10.03789139,3.65563488
23.12106766,-1.97527504,9.717252731,3.330210924
23.13106766,-1.999203324,9.688538551,3.713062525
23.14106766,-1.745564103,9.568898201,4.339982033
23.15106766,-1.319641709,9.310472488,4.660620213
23.16106766,-1.156929731,8.932407379,4.119842529
23.17106766,-1.410568953,8.544769287,1.899302959
23.18106766,-1.410568953,8.544769287,1.899302959
23.19106766,-1.410568953,8.544769287,1.899302959
23.20106766,-2.200200319,8.731410027,0.052043892
23.21106766,-2.267199516,8.860622406,0.329611331
23.22106766,-2.023131609,8.941978455,0.87517488
23.23106766,-0.898504913,8.894122124,1.975873351
23.24106766,-0.592223585,8.779266357,2.076371908
23.25106766,-0.692722142,8.621339798,1.573879123
23.26106766,-1.156929731,8.516056061,0.688534737
23.27106766,-1.774278045,8.33898735,-0.594018221
23.28106766,-2.204986095,7.865208149,-1.718644857
23.29106766,-2.252842426,7.156932354,-2.560918331
23.30106766,-2.511267424,5.72123909,-5.303092957
23.31106766,-2.128415823,4.840680122,-7.279564857
23.32106766,-2.023131609,4.084548473,-10.01216793
23.33106766,-2.798406124,3.854837179,-13.59183121
23.34106766,-4.698307037,3.974478483,-18.29133415
23.35106766,-6.837490559,3.361915827,-22.61277199
23.36106766,-6.837490559,3.361915827,-22.61277199
23.37106766,-3.980460405,4.213760853,-19.66002846
23.38106766,-0.037088752,5.18046093,-13.24726391
23.39106766,2.508874655,8.037490845,-1.723430514
23.40106766,6.184250355,11.25344467,18.66820335
23.41106766,12.20937729,12.19143105,43.92205429
23.42106766,12.20937729,12.19143105,43.92205429
23.43106766,12.20937729,12.19143105,43.92205429
23.44106766,12.20937729,12.19143105,43.92205429
23.45106766,12.20937729,12.19143105,43.92205429
23.46106766,2.910868645,10.72223854,-0.249451756
23.47106766,-3.789034605,9.047262192,-3.714258909
23.48106766,-9.263813019,7.549355507,-5.432305813
23.49106766,-9.263813019,7.549355507,-5.432305813
23.50106766,-9.263813019,7.549355507,-5.432305813
23.51106766,-6.909275532,4.936393261,-0.637089014
23.52106766,-3.391826153,4.615755081,-0.450448871
23.53106766,-0.08015956,4.706682205,-1.766501307
23.54106766,2.666800737,5.324030399,-3.355335474
23.55106766,2.666800737,5.324030399,-3.355335474
23.56106766,2.666800737,5.324030399,-3.355335474
23.57106766,5.016552448,10.49252701,0.320040017
23.58106766,4.351347923,11.10509014,2.660220623
23.59106766,2.834298372,11.38744259,4.856831551
23.60106766,1.173679471,11.51186943,6.751947403
23.61106766,-0.262014091,11.50229836,8.106285095
23.62106766,-1.826920033,11.10987568,8.182855606
23.63106766,-2.056631088,10.85623646,7.230511665
23.64106766,-2.104487419,10.60738277,5.909673691
23.65106766,-2.090130568,10.35374355,4.631906509
23.66106766,-2.176272154,10.17667484,3.708276987
23.67106766,-2.214557409,9.994820595,3.047857761
23.68106766,-2.214557409,9.994820595,3.047857761
23.69106766,-2.214557409,9.994820595,3.047857761
23.70106766,-2.214557409,9.994820595,3.047857761
23.71106766,0.431904495,9.367900848,3.827918053
23.72106766,0.900897741,9.473184586,3.301496983
23.73106766,1.192822099,9.693324089,2.770290375
23.74106766,1.274178028,9.765109062,2.665006161
23.75106766,1.274178028,9.765109062,2.665006161
23.76106766,0.541974306,9.875179291,4.115056515
23.77106766,0.302692056,9.793823242,4.234697819
23.78106766,0.183050931,9.674181938,4.239483356
23.79106766,0.178265288,9.626325607,4.464408875
23.80106766,0.159122705,9.645467758,4.631906509
23.81106766,-0.113659076,9.588040352,4.617549419
23.82106766,-0.123230368,9.458827972,4.397409916
23.83106766,-0.056231331,9.343972206,4.16769886
23.84106766,-0.056231331,9.343972206,4.16769886
23.85106766,0.015553347,9.281759262,3.401995659
23.86106766,0.039481573,9.300901413,2.751147747
23.87106766,-0.329013109,9.497113228,1.703091502
23.88106766,-0.668793917,9.329615593,1.435095429
23.89106766,-1.238285661,9.348757744,1.736590981
23.90106766,-1.544566989,9.166903496,2.516651154
23.91106766,-1.697707653,8.894122124,3.234498024
23.92106766,-1.491924882,8.458627701,3.55992198
23.93106766,-1.319641709,8.176275253,3.153141975
23.94106766,-1.319641709,8.176275253,3.153141975
23.95106766,-1.190429211,7.731209755,-0.742373228
23.96106766,-1.472782373,7.640282631,-1.962712765
23.97106766,-1.812563181,7.668996811,-2.891128063
23.98106766,-2.013560295,7.831708431,-3.431905985
23.99106766,-2.228914261,8.008777618,-3.848257065
24.00106766,-3.171686411,8.707481384,-4.365106583
24.01106766,-3.343969584,8.932407379,-4.613960266
24.02106766,-3.209971666,8.855836868,-5.422734261
24.03106766,-2.88454771,8.573483467,-6.528218269
24.04106766,-2.563909531,8.654839516,-7.648059368
24.05106766,-1.860419631,8.243273735,-9.634101868
24.06106766,-0.965503931,7.195217609,-11.48614693
24.07106766,-1.233500123,5.730810165,-12.96012592
24.08106766,-3.133401155,5.40060091,-12.61077309
24.09106766,-5.985645771,6.089733601,-10.00738239
24.10106766,-8.885746956,8.31027317,-5.193023205
24.11106766,-8.885746956,8.31027317,-5.193023205
24.12106766,-4.540380955,11.38744259,23.68834686
24.13106766,-4.540380955,11.38744259,23.68834686
24.14106766,-4.540380955,11.38744259,23.68834686
24.15106766,23.67099762,4.161118507,45.68317032
24.16106766,12.1232357,7.932207108,24.70768929
24.17106766,1.585245013,9.707681656,8.120641708
24.18106766,-5.909075737,9.535398483,0.2434697
24.19106766,-10.76650524,9.229117393,-2.039283037
24.20106766,-10.76650524,9.229117393,-2.039283037
24.21106766,-10.76650524,9.229117393,-2.039283037
24.21106766,-8.388039589,7.061219692,0.300897449
24.23106766,-0.448654234,5.252245903,1.234098315
24.24106766,2.480160713,5.099104881,0.018544376
24.25106766,4.260420799,5.864808083,-1.866999865
24.26106766,5.203192711,7.372286797,-4.771886349
24.27106766,4.054637909,8.64526844,-4.570889473
24.28106766,2.494517565,9.588040352,-3.034697294
24.29106766,1.460818172,9.908679008,0.583250523
24.30106766,0.771685302,9.961320877,5.177470207
24.31106766,0.16869399,9.970891953,9.173483849
24.32106766,-0.156729877,9.879964828,11.19302654
24.33106766,-0.362512618,9.736394882,9.45583725
24.34106766,-0.415154725,10.09531879,7.929215908
24.35106766,-0.510867655,10.34417248,6.345167637
24.36106766,-0.510867655,10.34417248,6.345167637
24.37106766,-0.56829536,10.3776722,4.899902344
24.38106766,-0.443868607,10.14317513,5.474180222
24.39106766,-0.443868607,10.14317513,5.474180222
24.40106766,-0.443868607,10.14317513,5.474180222
24.41106766,-0.309870541,8.927620888,6.986443996
24.42106766,-0.515653253,8.803194046,5.857031822
24.43106766,-0.515653253,8.659625053,4.741976261
24.44106766,-0.319441825,8.621339798,4.024129391
24.45106766,-0.319441825,8.621339798,4.024129391
24.46106766,-0.319441825,8.621339798,4.024129391
24.47106766,0.374476731,8.516056061,4.574478626
24.48106766,0.192622229,8.506484032,4.689334393
24.49106766,0.029910283,8.405985832,4.737190723
24.50106766,-0.405583441,8.28155899,4.555335999
24.51106766,-1.104287624,8.539983749,4.15334177
24.52106766,-1.994417667,8.860622406,3.555136204
24.53106766,-1.965703845,8.74576664,3.267997503
24.54106766,-1.965703845,8.74576664,3.267997503
24.55106766,-1.956132531,8.779266357,3.36849618
24.56106766,-1.664208174,8.712266922,4.076771736
24.57106766,-1.343569875,8.71705246,4.732405186
24.58106766,-1.343569875,8.71705246,4.732405186
24.59106766,-1.343569875,8.71705246,4.732405186
24.60106766,-1.707278967,8.908478737,3.378067255
24.61106766,-1.89391911,8.827122688,2.626721144
24.62106766,-2.066202402,8.693124771,1.999801517
24.63106766,-2.047059774,8.626125336,1.487737536
24.64106766,-1.683350682,8.453842163,1.224527001
24.65106766,-0.592223585,7.908278942,0.956530869
24.66106766,-0.352941334,7.917850018,1.396810174
24.67106766,-0.410369098,7.956135273,1.750947952
24.68106766,-0.410369098,7.956135273,1.750947952
24.69106766,-1.085145116,8.0757761,0.698105991
24.70106766,-1.697707653,8.315058708,-0.53180486
24.71106766,-1.697707653,8.315058708,-0.53180486
24.72106766,-1.697707653,8.315058708,-0.53180486
24.73106766,-4.803591251,10.38245773,-3.90568471
24.74106766,-4.803591251,10.38245773,-3.90568471
24.75106766,-3.736392498,10.80838013,-3.216551781
24.76106766,-2.415554523,10.58824062,-2.915056229
24.77106766,-1.243071318,9.990034103,-3.671188116
