Time (s),Acceleration x (m/s^2),Acceleration y (m/s^2),Acceleration z (m/s^2)
0.045271059,1.762313843,1.85443759,8.575278282
0.053925954,1.566102386,1.773081541,7.93878746
0.063925954,2.140379906,1.313659668,7.321439266
0.073925954,2.331805706,1.00737834,6.90030241
0.083925954,2.21216464,0.811166883,7.134799004
0.093925954,1.891526341,0.672383189,7.465008259
0.103925954,2.00638175,0.634097993,8.37428093
0.113925954,2.183450699,0.667597532,9.211769104
0.123925954,2.590230465,0.624526739,9.714262009
0.133925954,2.389233351,0.653240561,9.293125153
0.143925954,2.10209465,0.815952539,8.867202759
0.153925954,1.819741607,0.997807026,8.06799984
0.163925954,1.633101463,1.141376376,7.264011383
0.173925954,1.6713866,1.34237349,6.828517437
0.183925954,2.260020971,1.686939955,6.546164513
0.193925954,2.274377823,1.80658114,6.316453457
0.203925954,2.274377823,1.80658114,6.316453457
0.213925954,2.274377823,1.80658114,6.316453457
0.223925954,2.274377823,1.80658114,6.316453457
0.233925954,1.063609719,2.127219439,8.469993591
0.243925954,0.537188709,2.160718918,8.656634331
0.253925954,0.537188709,2.160718918,8.656634331
0.263925954,0.369691104,1.99800694,7.354938507
0.273925954,0.608973384,2.46221447,7.153941631
0.283925954,0.829113066,2.845066071,7.522436142
0.293925954,0.891326427,3.08434844,7.871788502
0.303925954,0.924825966,3.16570425,8.42213726
0.313925954,0.489332229,2.883351326,9.360123634
0.323925954,0.202193514,2.548356056,9.508479118
0.333925954,-0.137587309,2.428714991,9.996614456
0.343925954,-0.606580555,2.476571321,10.13539886
0.353925954,-0.53479588,2.323430777,9.96790123
0.363925954,-0.376869559,2.242074728,9.656833649
0.373925954,-0.195015043,2.203789711,9.336195946
0.383925954,-0.195015043,2.203789711,9.336195946
0.393925954,-0.195015043,2.203789711,9.336195946
0.403925954,0.044267219,2.734996319,10.523036
0.413925954,0.044267219,2.734996319,10.523036
0.423925954,0.202193514,2.060220242,11.58544922
0.433925954,0.173479646,1.495514154,12.16929817
0.443925954,-0.166301176,0.854237676,12.81057453
0.453925954,-0.285942316,0.586241543,12.4181509
0.463925954,-0.285942316,0.586241543,12.4181509
0.473925954,-0.774078131,0.744167864,11.09252739
0.483925954,-1.185643673,0.86380899,10.59482002
0.493925954,-1.668993831,0.839880764,10.35075283
0.503925954,-2.185843468,0.768096089,10.27418232
0.513925954,-2.185843468,0.768096089,10.27418232
0.523925954,-3.73160696,0.169890404,10.34596729
0.533925954,-4.583451748,-0.189032987,10.12582684
0.543925954,-5.779862881,-0.624526739,9.747760773
0.553925954,-6.875775814,-0.978664458,9.422337532
0.563925954,-7.172485828,-1.485942841,9.374481201
0.573925954,-7.172485828,-1.485942841,9.374481201
0.583925954,-7.172485828,-1.485942841,9.374481201
0.593925954,-4.22931385,-3.988835335,9.79083252
0.603925954,-3.12383008,-4.438685894,9.508479118
0.613925954,-1.980060697,-4.615755081,9.029914856
0.623925954,-0.697507799,-4.673182487,7.91007328
0.633925954,1.226321578,-5.156532764,4.861617565
0.643925954,1.987239242,-5.836094379,3.64127779
0.653925954,2.054238319,-6.209374905,3.488137245
0.663925954,2.456232548,-6.769295216,4.852046013
0.673925954,2.973082066,-7.391428947,6.90030241
0.683925954,3.422932863,-7.941778183,9.417551994
0.693925954,3.973282099,-8.606983185,11.60937691
0.703925954,5.566901684,-9.913464546,13.43749332
0.713925954,6.035895348,-10.15753174,13.28913879
0.723925954,6.035895348,-10.15753174,13.28913879
0.733925954,6.035895348,-10.15753174,13.28913879
0.743925954,6.811169624,-10.02353382,13.05464172
0.753925954,7.366304398,-10.13838959,13.18864059
0.763925954,7.366304398,-10.13838959,13.18864059
0.773925954,10.23290634,-10.68395329,13.05464172
0.783925954,10.4913311,-10.70788097,13.04507065
0.793925954,10.4913311,-10.70788097,13.04507065
0.803925954,9.395418167,-11.51665497,13.29870987
0.813925954,9.022137642,-12.36850071,13.87777328
0.823925954,9.113064766,-13.30170155,14.25583935
0.833925954,9.53898716,-14.3689003,14.89233017
0.843925954,9.53898716,-14.3689003,14.89233017
0.853925954,9.53898716,-14.3689003,14.89233017
0.863925954,9.53898716,-14.3689003,14.89233017
0.873925954,21.44088745,-10.84187984,7.632505894
0.883925954,24.64248466,-9.085547447,6.163312912
0.893925954,30.16990471,-5.099104881,5.177470207
0.903925954,33.6825676,-3.936193228,5.770890236
0.913925954,37.05166245,-4.266402721,5.440680504
0.923925954,37.05166245,-4.266402721,5.440680504
0.933925954,42.86622238,-7.185646534,7.048657417
0.943925954,45.14897537,-12.32542896,9.159127235
0.953925954,44.7517662,-20.46581268,15.8686018
0.963925954,44.7517662,-20.46581268,15.8686018
0.973925954,27.97807884,-59.5597496,43.29991913
0.983925954,21.84288216,-71.90192413,42.39064789
0.993925954,21.84288216,-71.90192413,42.39064789
1.003925954,10.3094759,-95.62437439,40.95973969
1.013925954,6.126822472,-100.2042313,41.54358673
1.023925954,6.126822472,-100.2042313,41.54358673
1.033925954,1.111466169,-94.60502625,22.12343979
1.043925954,-0.151944235,-92.85826874,17.40958023
1.053925954,-3.970889091,-93.18847656,11.12602711
1.063925954,-11.40299606,-79.587677,13.06421375
1.073925954,-9.412167549,-65.89594269,15.07418442
1.083925954,3.59043026,-61.09593964,1.645663738
1.093925954,1.307677627,-55.40102386,-6.236293793
1.103925954,-4.186243057,-50.92644501,-14.30489159
1.113925954,-4.186243057,-50.92644501,-14.30489159
1.123925954,-26.06621361,-43.0062027,-35.20380402
1.133925954,-37.23590851,-34.78446198,-43.29154587
1.143925954,-49.0564537,-28.53919601,-43.157547
1.153925954,-60.54678726,-11.23430252,-14.68774319
1.163925954,-52.09055328,-13.97647667,1.636092424
1.173925954,-43.60081863,-15.14896011,8.42213726
1.183925954,-34.63251877,-17.76192284,2.803789854
1.193925954,-24.63051987,-19.57568169,-6.389434814
1.203925954,-11.59920788,-20.4179554,-12.160923
1.213925954,11.80738354,-18.08256149,-9.911669731
1.223925954,15.14297771,-14.83789349,-3.800400496
1.233925954,13.3770752,-11.42094231,4.263411522
1.243925954,13.3770752,-11.42094231,4.263411522
1.253925954,8.400003433,-5.687739372,13.2269249
1.263925954,5.834897995,-3.706482172,11.45623684
1.273925954,4.112065792,-2.170290232,8.063214302
1.283925954,4.112065792,-2.170290232,8.063214302
1.293925954,4.112065792,-2.170290232,8.063214302
1.303925954,4.112065792,-2.170290232,8.063214302
1.313925954,4.112065792,-2.170290232,8.063214302
1.323925954,4.370490551,-1.43808639,4.110270977
1.333925954,5.423332691,-0.380458802,5.794818401
1.343925954,5.423332691,-0.380458802,5.794818401
1.353925954,5.423332691,-0.380458802,5.794818401
1.363925954,5.423332691,-0.380458802,5.794818401
1.373925954,2.580659151,1.95015049,6.584449768
1.383925954,2.408375978,0.988235772,6.393023968
1.393925954,2.685943365,0.117248312,7.847859859
1.403925954,3.399004459,-1.031306505,9.680762291
1.413925954,4.82034111,-3.017349243,12.8440733
1.423925954,6.251249313,-3.558127165,13.57627773
1.433925954,7.016952515,-3.515056372,12.76750374
1.443925954,6.897311211,-2.739781857,11.12124157
1.453925954,7.012166977,-1.691725612,9.446265221
1.463925954,7.519444942,-0.873380244,8.613563538
1.473925954,8.342576027,-2.218146563,10.91067314
1.483925954,8.127222061,-3.763910055,12.51865005
1.493925954,7.543373585,-4.68275404,14.06919861
1.503925954,7.543373585,-4.68275404,14.06919861
1.513925954,7.543373585,-4.68275404,14.06919861
1.523925954,5.978467464,-5.481956482,14.43290806
1.533925954,5.978467464,-5.481956482,14.43290806
1.543925954,5.978467464,-5.481956482,14.43290806
1.553925954,9.079565048,-5.175675392,13.51406384
1.563925954,9.079565048,-5.175675392,13.51406384
1.573925954,10.06062317,-5.50109911,13.15514088
1.583925954,10.30469036,-5.749952793,12.94935799
1.593925954,10.16112137,-5.965306759,12.46600819
1.603925954,9.395418167,-6.02752018,12.18365479
1.613925954,9.280562401,-5.960521221,12.63350582
1.623925954,9.500701904,-5.946164131,13.12164116
1.633925954,10.13719273,-5.864808083,13.3657093
1.643925954,10.66839981,-5.553741455,13.30828094
1.653925954,10.69711399,-5.123033047,12.89671612
1.663925954,8.854640007,-4.721039295,12.08794212
1.673925954,8.23729229,-4.816751957,12.72921848
1.683925954,7.34716177,-5.218746185,13.5092783
1.693925954,7.34716177,-5.218746185,13.5092783
1.703925954,5.586044312,-6.692724705,14.80140305
1.713925954,5.298905849,-7.362715244,15.37567997
1.723925954,5.006981373,-7.712067604,15.08854103
1.733925954,5.006981373,-7.712067604,15.08854103
1.743925954,5.006981373,-7.712067604,15.08854103
1.753925954,6.385247231,-8.61655426,11.18345451
1.763925954,7.241877556,-8.712266922,11.37009525
1.773925954,8.088936806,-8.860622406,11.33181
1.783925954,9.146564484,-8.693124771,11.25523949
1.793925954,9.146564484,-8.693124771,11.25523949
1.803925954,15.39661694,-8.070990562,10.9058876
1.813925954,18.60778618,-7.688138962,10.79103184
1.823925954,22.0869503,-7.534998417,10.58524895
1.833925954,26.07339287,-7.975277901,10.29332447
1.843925954,30.54796982,-9.64068222,9.886545181
1.853925954,34.74497986,-12.75135231,9.628120422
1.863925954,37.93222046,-23.37069893,10.9489584
1.873925954,36.55395508,-31.01337433,13.66241932
1.883925954,33.22793198,-41.33600998,16.13659859
1.893925954,28.74378204,-55.23831177,18.05564117
1.903925954,22.16351891,-69.9015274,20.59681892
1.913925954,17.02852249,-83.3779068,24.01376915
1.923925954,17.02852249,-83.3779068,24.01376915
1.933925954,17.02852249,-83.3779068,24.01376915
1.943925954,17.02852249,-83.3779068,24.01376915
1.953925954,9.323633194,-113.5178986,11.85823059
1.963925954,12.84108257,-109.3113174,13.99741459
1.973925954,16.2388916,-107.4975586,7.919644833
1.983925954,16.57388687,-103.0469055,-0.493519664
1.993925954,16.57388687,-103.0469055,-0.493519664
2.003925954,7.954938889,-82.02835083,-11.52921772
2.013925954,7.954938889,-82.02835083,-11.52921772
2.023925954,-7.397411346,-61.12465286,-14.32403469
2.033925954,-11.65184975,-50.07938385,-12.75434303
2.043925954,-12.29312611,-45.03531647,-13.23769283
2.053925954,-20.91207314,-32.73142242,-22.98605347
2.063925954,-26.11885643,-26.08894539,-25.25444794
2.073925954,-30.08615494,-21.71965027,-23.45983124
2.083925954,-35.65185928,-18.81954956,-18.86082649
2.093925954,-35.65185928,-18.81954956,-18.86082649
2.103925954,-35.65185928,-18.81954956,-18.86082649
2.113925954,-35.65185928,-18.81954956,-18.86082649
2.123925954,-21.38106728,-20.91566277,0.559322298
2.133925954,-17.53340721,-20.38445663,-0.48394838
2.143925954,-14.58545017,-18.68076706,-0.713659346
2.153925954,-11.78584766,-17.02493286,0.224327117
2.163925954,-9.426525116,-15.46481228,1.406381488
2.173925954,-7.684549809,-13.70848083,2.822932482
2.183925954,-5.334797859,-10.89930725,5.033900738
2.193925954,-4.348955154,-9.860821724,4.411766529
2.203925954,-3.588037491,-9.324830055,3.167499065
2.213925954,-3.588037491,-9.324830055,3.167499065
2.223925954,-2.999403238,-8.176275253,2.272583246
2.233925954,-2.903690338,-7.290930748,2.842075109
2.243925954,-2.903690338,-7.290930748,2.842075109
2.253925954,-2.300698996,-6.104090691,5.024329185
2.263925954,-2.434697151,-5.477170944,5.84746027
2.273925954,-2.554338217,-4.692325115,6.90030241
2.283925954,-2.472982168,-4.453042984,7.335795879
2.293925954,-2.152343988,-4.692325115,7.374081135
2.303925954,-1.444068432,-4.941178799,7.450651646
2.313925954,0.384048045,-5.749952793,7.378866673
2.323925954,1.049252748,-6.147161484,6.818946362
2.333925954,1.441675663,-6.108876228,6.306882381
2.343925954,1.451246977,-5.783452511,5.928816319
2.353925954,1.312463164,-5.615954876,5.775675774
2.363925954,1.231107235,-5.979663849,6.192026615
2.373925954,1.231107235,-5.979663849,6.192026615
2.383925954,1.231107235,-5.979663849,6.192026615
2.393925954,1.231107235,-5.979663849,6.192026615
2.403925954,4.241278172,-11.23908806,11.58544922
2.413925954,4.911268711,-12.10050392,12.10229874
2.423925954,5.097908497,-12.3493576,12.97807217
2.433925954,4.561916351,-12.42114258,13.36092377
2.443925954,4.561916351,-12.42114258,13.36092377
2.453925954,4.676771641,-13.1772747,15.02154255
2.463925954,6.3373909,-13.67019558,14.80140305
2.473925954,8.132007599,-14.02433395,13.85863018
2.483925954,9.730413437,-13.89512062,12.21236897
2.493925954,9.730413437,-13.89512062,12.21236897
2.503925954,9.730413437,-13.89512062,12.21236897
2.513925954,10.51525879,-10.63131142,7.981858253
2.523925954,10.00798035,-9.774680138,8.618349075
2.533925954,10.05583763,-9.339186668,9.06341362
2.543925954,10.06540871,-9.363115311,9.29791069
2.553925954,10.03669453,-9.760323524,9.431908607
2.563925954,10.03669453,-9.760323524,9.431908607
2.573925954,10.03669453,-9.760323524,9.431908607
2.583925954,9.625128746,-10.89452171,12.69093323
2.593925954,10.20419216,-10.65523911,13.60977745
2.603925954,10.84546852,-10.06660461,13.36092377
2.613925954,10.97946644,-9.415757179,12.36550903
2.623925954,11.07039356,-9.176474571,11.32702446
2.633925954,11.07039356,-9.176474571,11.32702446
2.643925954,10.98425198,-9.683753014,12.26979637
2.653925954,10.82154083,-9.875179291,13.09771252
2.663925954,11.09910774,-10.00439167,13.7916317
2.673925954,11.98445225,-10.27717304,13.77727413
2.683925954,12.91286755,-10.3728857,12.84885979
2.693925954,15.66939926,-10.13838959,10.62831974
2.703925954,17.82772446,-10.08574772,9.920044899
2.713925954,17.82772446,-10.08574772,9.920044899
2.723925954,17.82772446,-10.08574772,9.920044899
2.733925954,24.53241348,-10.00917721,7.613363266
2.743925954,26.379673,-10.22453117,7.383652687
2.753925954,28.59064102,-10.87059307,7.359724045
2.763925954,28.59064102,-10.87059307,7.359724045
2.773925954,28.59064102,-10.87059307,7.359724045
2.783925954,38.53042603,-23.83969116,10.01097202
2.793925954,39.09513092,-34.5738945,10.67617607
2.803925954,34.63491058,-45.73402023,13.28913879
2.813925954,29.40420151,-58.47819138,19.31905174
2.823925954,29.40420151,-58.47819138,19.31905174
2.833925954,21.41217422,-100.2185898,30.41696358
2.843925954,20.55075645,-113.4556885,17.45265007
2.853925954,15.64068508,-125.7212982,5.038686275
2.863925954,7.069594383,-125.7691498,4.899902344
2.873925954,-2.224128723,-111.2686462,13.8921299
2.883925954,-2.683550596,-99.26145935,17.73021698
2.893925954,6.969096184,-86.71828461,6.369095802
2.903925954,5.485546112,-81.31050873,0.205184549
2.913925954,-0.046660043,-73.3376236,-4.010969162
2.923925954,-8.268398285,-63.53183365,-9.399605751
2.933925954,-16.36092567,-50.1224556,-11.15593719
2.943925954,-19.59602165,-39.95296097,-10.4668045
2.953925954,-19.59602165,-39.95296097,-10.4668045
2.963925954,-19.93101692,-29.54418182,-22.13899422
2.973925954,-19.93101692,-29.54418182,-22.13899422
2.983925954,-30.95235825,-19.26940155,-29.57110023
2.993925954,-30.95235825,-19.26940155,-29.57110023
3.003925954,-43.24668121,-14.13440323,-21.38286209
3.013925954,-43.24668121,-14.13440323,-21.38286209
3.023925954,-43.24668121,-14.13440323,-21.38286209
3.033925954,-43.24668121,-14.13440323,-21.38286209
3.043925954,-9.483952522,-23.79662132,12.81057453
3.053925954,-3.961317778,-20.55673981,7.3980093
3.063925954,-0.673579574,-16.18744469,2.430509567
3.073925954,1.475175142,-12.31585789,-0.048454657
3.083925954,4.695914268,-7.999206066,2.28215456
3.093925954,4.906482697,-6.697510719,4.727619171
3.103925954,4.183850288,-5.18046093,6.962515831
3.113925954,3.068794966,-4.137190342,8.312067986
3.123925954,1.934597135,-3.510270834,9.015557289
3.133925954,1.044467092,-2.940778971,8.78584671
3.143925954,0.513260484,-1.978864312,9.350552559
3.153925954,0.513260484,-1.978864312,9.350552559
3.163925954,1.829312921,-0.930808008,9.642477036
3.173925954,2.413161755,-0.935593665,8.120641708
3.183925954,2.810370207,-0.882951558,6.594020844
3.193925954,2.599801779,-0.514456868,6.369095802
3.203925954,1.293320656,-0.342173636,7.852645874
3.213925954,-1.506281853,-1.088734269,12.90150166
3.213925954,-1.506281853,-1.088734269,12.90150166
3.233925954,-1.836491346,-1.557727575,15.06461334
3.243925954,-0.731007338,-2.055434704,13.5092783
3.253925954,1.068395257,-2.514856577,11.83908844
3.263925954,2.456232548,-2.309073925,10.10189915
3.273925954,2.867797852,-2.950350285,9.403194427
3.283925954,2.346162558,-3.816552162,10.47996521
3.293925954,1.39860487,-5.079962254,12.53300667
3.303925954,0.589830756,-6.175875187,14.17926884
3.313925954,0.40797627,-6.654439926,15.0598278
3.323925954,1.743171334,-6.932007313,14.44726467
3.333925954,3.638286829,-7.185646534,13.19821167
3.343925954,6.145965099,-7.645068169,10.75753212
3.353925954,6.744170666,-7.458428383,10.99202919
3.363925954,6.480959892,-7.448856831,11.46102238
3.373925954,6.112465382,-7.92742157,12.35115242
3.383925954,6.437889099,-8.621339798,13.35135174
3.393925954,7.471588612,-9.037691116,13.35135174
3.403925954,7.471588612,-9.037691116,13.35135174
3.413925954,7.471588612,-9.037691116,13.35135174
3.423925954,8.945567131,-9.477970123,11.25045395
3.433925954,8.433503151,-9.272188187,10.57089233
3.443925954,8.433503151,-9.272188187,10.57089233
3.453925954,8.309076309,-8.779266357,10.03011417
3.463925954,8.577073097,-8.482556343,9.862616539
3.473925954,8.577073097,-8.482556343,9.862616539
3.483925954,9.649057388,-8.362915039,9.747760773
3.493925954,8.907281876,-7.836493969,9.70468998
3.503925954,8.117650986,-8.123632431,9.484550476
3.513925954,7.782655716,-8.606983185,9.513264656
3.523925954,8.017151833,-9.655039787,9.83868885
3.533925954,9.333204269,-10.9615202,11.67637634
3.543925954,10.8550396,-11.47358418,12.82014561
3.553925954,12.96072388,-12.59342575,13.77727413
3.563925954,15.46840191,-13.80897903,14.495121
3.573925954,18.03829384,-14.53161144,14.86840153
3.583925954,20.55075645,-14.72782326,15.25603867
3.593925954,26.43231583,-13.9860487,15.37089443
3.603925954,26.43231583,-13.9860487,15.37089443
3.613925954,31.61995506,-12.55035496,14.25583935
3.623925954,35.95574951,-13.56969738,13.65763378
3.633925954,40.3968277,-16.94357681,12.75314617
3.643925954,44.21577454,-21.34158516,13.00678539
3.653925954,47.1110878,-28.3621273,13.72463226
3.663925954,47.1110878,-28.3621273,13.72463226
3.673925954,47.1110878,-28.3621273,13.72463226
3.683925954,47.1110878,-28.3621273,13.72463226
3.693925954,47.1110878,-28.3621273,13.72463226
3.703925954,17.49272919,-106.6935654,34.3603363
3.713925954,12.42473125,-116.2170029,21.3720932
3.723925954,12.42473125,-116.2170029,21.3720932
3.733925954,12.42473125,-116.2170029,21.3720932
3.743925954,3.303291559,-110.5938721,8.761918068
3.753925954,3.466003656,-110.2540894,-0.637089014
3.763925954,-2.243271112,-106.0331497,-6.71964407
3.773925954,-12.03948689,-89.60881805,-5.38923502
3.783925954,-20.84028816,-63.94340134,1.932802439
3.793925954,-10.79521942,-37.5601387,8.192426682
3.803925954,-1.716850281,-37.36392593,9.116056442
3.813925954,1.484746456,-35.14817047,8.474779129
3.823925954,0.187836573,-32.11407089,4.660620213
3.833925954,-3.530609846,-33.2434845,-6.786643028
3.843925954,-11.84806156,-29.43889618,-20.02373886
3.853925954,-11.84806156,-29.43889618,-20.02373886
3.863925954,-11.84806156,-29.43889618,-20.02373886
3.873925954,-11.84806156,-29.43889618,-20.02373886
3.883925954,-22.65404892,-13.0384903,0.669392109
3.893925954,-22.65404892,-13.0384903,0.669392109
3.903925954,-18.94517326,-11.966506,9.197412491
3.913925954,-18.88295937,-11.24865913,7.666005611
3.923925954,-18.88295937,-11.24865913,7.666005611
3.933925954,-14.33181095,-11.3635149,2.291725874
3.943925954,-11.3072834,-11.68893814,2.468794823
3.953925954,-8.383254051,-12.07657623,2.851646423
3.963925954,-5.976074696,-12.34457207,3.114856958
3.973925954,-4.205385685,-12.19621658,3.483351469
3.983925954,-3.061616659,-10.55474091,5.124827862
3.993925954,-3.276970625,-9.372686386,6.862017155
4.003925954,-3.181257725,-8.434700012,8.924630165
4.013925954,-2.59740901,-7.745566845,10.15932655
4.023925954,-1.936989903,-7.099504948,10.03968525
4.033925954,-1.649851203,-6.443871498,8.867202759
4.043925954,-1.779063582,-3.893122435,5.416752338
4.053925954,-1.884347796,-2.787638426,4.138985157
4.063925954,-1.520638824,-2.433500528,3.646063566
4.073925954,-0.821934581,-2.873780012,3.35413909
4.083925954,-0.12801601,-3.716053486,3.339782238
4.093925954,0.340977222,-4.094119549,4.440480709
4.103925954,0.50368917,-3.763910055,6.756732941
4.113925954,0.50368917,-3.763910055,6.756732941
4.123925954,0.50368917,-3.763910055,6.756732941
4.133925954,0.50368917,-3.763910055,6.756732941
4.143925954,2.441875458,-0.356530577,10.08275604
4.153925954,3.17407918,-0.868594646,7.996214867
4.163925954,3.37986207,-0.839880764,6.560521603
4.173925954,3.37986207,-0.839880764,6.560521603
4.183925954,3.37986207,-0.839880764,6.560521603
4.193925954,3.37986207,-0.839880764,6.560521603
4.203925954,3.37986207,-0.839880764,6.560521603
4.213925954,5.380261898,-0.610169768,13.64806175
4.223925954,5.98803854,-0.370887518,13.46142197
4.233925954,5.184050083,-0.155533478,11.91565895
4.243925954,5.184050083,-0.155533478,11.91565895
4.253925954,5.184050083,-0.155533478,11.91565895
4.263925954,1.786242127,-2.146361828,10.76231766
4.273925954,1.920240164,-2.567498684,10.70967579
4.283925954,2.140379906,-2.739781857,11.60459137
4.293925954,2.796013355,-2.849851847,13.00678539
4.303925954,2.796013355,-2.849851847,13.00678539
4.313925954,6.342176437,-3.361915827,14.47119331
4.323925954,7.806583881,-3.232703447,13.82513142
4.333925954,8.983852386,-3.208775282,13.01635742
4.343925954,9.749555588,-3.151347399,13.19342613
4.353925954,10.18026352,-3.189632654,14.89711571
4.363925954,10.92203903,-3.438486099,16.8544445
4.373925954,10.92203903,-3.438486099,16.8544445
4.383925954,10.92203903,-3.438486099,16.8544445
4.393925954,12.91765308,-5.596812248,15.92602921
4.403925954,13.54457283,-5.706882,15.6484623
4.413925954,15.00419426,-5.802595139,16.06002808
4.423925954,17.30130386,-6.463014126,15.94038582
4.433925954,17.30130386,-6.463014126,15.94038582
4.443925954,17.30130386,-6.463014126,15.94038582
4.453925954,17.30130386,-6.463014126,15.94038582
4.463925954,37.48715591,-8.961120605,14.07877064
4.473925954,43.4596405,-9.238688469,14.38026619
4.483925954,48.52285385,-8.425128937,14.81575966
4.493925954,48.52285385,-8.425128937,14.81575966
4.503925954,48.52285385,-8.425128937,14.81575966
4.513925954,58.14678574,-21.01616096,7.532007694
4.523925954,56.72544861,-29.10390091,7.264011383
4.533925954,52.88736343,-38.27798462,10.49910736
4.543925954,46.35017014,-48.74419022,15.85424423
4.553925954,39.37748718,-62.26842499,29.24448013
4.563925954,27.98286438,-92.07342529,51.10530853
4.573925954,23.20679092,-102.1998444,36.28416443
4.583925954,23.3168602,-112.9149094,19.40997887
4.593925954,20.16312027,-127.4536972,3.732205153
4.603925954,8.902496338,-132.2776337,-6.705287457
4.613925954,-4.06660223,-123.9649658,-5.819942951
4.623925954,-4.06660223,-123.9649658,-5.819942951
4.633925954,-4.06660223,-123.9649658,-5.819942951
4.643925954,-4.06660223,-123.9649658,-5.819942951
4.653925954,-34.45066452,-44.94438934,-6.087938786
4.663925954,-30.30150986,-37.74677658,-3.987040758
4.673925954,-30.30150986,-37.74677658,-3.987040758
4.683925954,-24.47259331,-26.22294426,-7.164709091
4.693925954,-24.47259331,-26.22294426,-7.164709091
4.703925954,-25.08515549,-12.33021545,3.894917011
4.713925954,-20.27079773,-12.4498558,9.766903877
4.723925954,-14.78166199,-13.01934814,15.01675701
4.733925954,-10.01994514,-13.37348557,18.34278107
4.743925954,-5.76072073,-14.02433395,17.27558136
4.753925954,2.331805706,-14.34018612,11.99222851
4.763925954,5.46161747,-14.32582951,10.07318497
4.773925954,7.399804115,-13.37348557,9.32662487
4.783925954,8.419146538,-12.19621658,8.556135178
4.793925954,8.964710236,-10.58345413,7.2065835
4.803925954,8.519644737,-8.683553696,5.766104221
4.813925954,7.203592777,-6.716653347,4.593621254
4.823925954,4.236492634,-3.749552965,4.952544689
4.833925954,3.408575773,-3.146561861,6.05324316
4.843925954,3.408575773,-3.146561861,6.05324316
4.853925954,1.925025821,-2.495713949,8.111070633
4.863925954,1.470389485,-2.136790514,8.704490662
4.873925954,1.470389485,-2.136790514,8.704490662
4.883925954,1.470389485,-2.136790514,8.704490662
4.893925954,1.470389485,-2.136790514,8.704490662
4.903925954,1.470389485,-2.136790514,8.704490662
4.913925954,-1.305284739,0.189032987,7.005586624
4.923925954,-1.04685986,-0.126819596,7.07737112
4.933925954,-0.410369098,-1.002592683,6.522236347
4.943925954,0.293120772,-1.667797327,6.062814236
4.953925954,0.293120772,-1.667797327,6.062814236
4.963925954,2.461018085,0.595812857,6.244668961
4.973925954,2.556730986,1.275374413,6.742375851
4.983925954,3.025724173,1.160519004,7.436294556
4.993925954,3.877569199,0.361316234,8.21635437
5.003925954,4.777270317,-0.327816695,8.498707771
5.013925954,5.624329567,-1.270588875,7.699504852
5.023925954,5.734399319,-1.734796405,6.938587666
5.033925954,5.413761139,-2.088934183,6.450451851
5.043925954,4.791627407,-1.696511269,7.02951479
5.053925954,3.906282902,-0.739382207,9.039485931
5.063925954,3.619144201,-0.643669307,11.31745243
5.073925954,4.911268711,-2.385644197,12.59043407
5.083925954,5.016552448,-2.835494757,10.81017494
5.093925954,4.772484779,-2.864208698,8.962915421
5.103925954,4.877768993,-2.65364027,7.929215908
5.113925954,5.217549801,-2.242074728,8.249854088
5.123925954,5.217549801,-2.242074728,8.249854088
5.133925954,7.782655716,-1.978864312,11.67159081
5.143925954,7.782655716,-1.978864312,11.67159081
5.153925954,7.782655716,-1.978864312,11.67159081
5.163925954,8.553144455,-6.199803352,11.29831028
5.173925954,8.132007599,-6.692724705,12.72443295
5.183925954,7.892725468,-7.003791809,14.43290806
5.193925954,8.232506752,-7.032505512,15.76331711
5.203925954,8.232506752,-7.032505512,15.76331711
5.213925954,10.06540871,-8.027919769,13.04028511
5.223925954,9.605986595,-8.530412674,11.10688496
5.233925954,8.964710236,-9.104690552,10.67617607
5.243925954,8.347361565,-9.899106979,11.76730347
5.253925954,7.749155998,-10.84666538,13.19342613
5.263925954,7.524230957,-11.93300629,14.720047
5.273925954,7.777870178,-14.44068432,16.73001862
5.283925954,8.979066849,-15.41695595,17.29472351
5.293925954,11.27617645,-16.23051643,17.75893211
5.303925954,13.89392471,-16.7042942,17.68714714
5.313925954,16.44467354,-16.88614845,17.35693741
5.323925954,20.00040817,-17.69013786,16.83051682
5.333925954,20.00040817,-17.69013786,16.83051682
5.343925954,20.00040817,-17.69013786,16.83051682
5.353925954,36.62574005,-17.71406555,18.548563
5.363925954,41.97608948,-18.15434456,17.59622002
5.373925954,47.59922409,-20.1164608,15.08854103
5.383925954,52.48058319,-23.14577293,13.03071404
5.393925954,54.9786911,-27.0317173,13.2269249
5.403925954,53.54299545,-48.34698105,18.52463531
5.413925954,45.31168747,-65.07281494,25.325037
5.423925954,33.53899765,-85.46444702,31.82394218
5.433925954,21.17289162,-107.1003494,35.32225037
5.443925954,11.13260746,-128.712326,37.05944061
5.453925954,-0.95114702,-143.5573883,30.16810989
5.463925954,-23.79303169,-119.0453186,17.16551208
5.473925954,-22.97947311,-109.0433197,8.436494827
5.483925954,-26.41077995,-91.5470047,7.421937466
5.493925954,-25.68336105,-78.33383179,9.350552559
5.503925954,-23.2666111,-68.64768982,6.412166595
5.513925954,-19.15574074,-57.99484253,3.138785124
5.523925954,-19.15574074,-57.99484253,3.138785124
5.533925954,-19.15574074,-57.99484253,3.138785124
5.543925954,-19.15574074,-57.99484253,3.138785124
5.553925954,-19.15574074,-57.99484253,3.138785124
5.563925954,-26.03271484,-22.43271255,-3.709473372
5.573925954,-24.88415909,-17.38385582,2.980858803
5.583925954,-24.46780777,-16.04866219,3.167499065
5.593925954,-24.46780777,-16.04866219,3.167499065
5.603925954,-24.46780777,-16.04866219,3.167499065
5.613925954,-27.09991264,-8.152346611,-1.254437327
5.623925954,-20.82593155,-9.387042999,1.808375716
5.633925954,-14.91087437,-10.10010433,4.708476543
5.643925954,-9.292527199,-9.851250648,6.895516872
5.653925954,-2.286342144,-7.558926582,5.230112076
5.663925954,-0.472582459,-5.735595703,3.35413909
5.673925954,0.809970438,-4.443471432,1.803590059
5.683925954,1.259821177,-4.118047714,0.530608416
5.693925954,0.862612545,-3.984049797,0.49232325
5.703925954,0.297906429,-3.361915827,1.636092424
5.713925954,-0.305084884,-2.787638426,3.36849618
5.723925954,-0.305084884,-2.787638426,3.36849618
5.733925954,-0.305084884,-2.787638426,3.36849618
5.743925954,-0.305084884,-2.787638426,3.36849618
5.753925954,-0.037088752,-2.596212626,7.661220074
5.763925954,0.096909314,-2.835494757,7.005586624
5.773925954,0.197407871,-2.888136864,6.747161865
5.783925954,0.197407871,-2.888136864,6.747161865
5.793925954,0.197407871,-2.888136864,6.747161865
5.803925954,0.197407871,-2.888136864,6.747161865
5.813925954,1.288534999,-2.514856577,8.292924881
5.823925954,1.728814363,-3.266202927,6.943373203
5.833925954,1.743171334,-3.409772158,5.880959988
5.843925954,1.211964726,-2.840280533,5.71824789
5.853925954,-0.013160525,-2.538784742,6.297310829
5.863925954,-0.137587309,-3.299702406,7.335795879
5.873925954,-0.309870541,-4.161118507,8.895915985
5.883925954,-0.510867655,-5.137390137,10.66181946
5.893925954,-0.300299227,-6.089733601,12.0352993
5.903925954,0.446261436,-6.482156754,13.25085354
5.913925954,1.657029629,-5.18046093,14.83490181
5.923925954,2.173879385,-4.558327198,14.59083462
5.933925954,3.006581545,-4.587040901,13.71506119
5.943925954,3.920639992,-4.835894585,12.45165062
5.953925954,4.705485821,-5.352744102,11.49930763
5.963925954,5.203192711,-5.764309883,11.26002502
5.973925954,5.413761139,-6.606583118,12.13101292
5.983925954,5.203192711,-7.176074982,14.07877064
5.993925954,5.265406132,-8.252845764,15.60060501
6.003925954,6.495316982,-9.133403778,17.39522171
6.013925954,8.170292854,-9.812965393,17.68714714
6.023925954,8.170292854,-9.812965393,17.68714714
6.033925954,10.39083195,-10.04267693,16.76830292
6.043925954,10.39083195,-10.04267693,16.76830292
6.053925954,10.39083195,-10.04267693,16.76830292
6.063925954,10.39083195,-10.04267693,16.76830292
6.073925954,11.19003487,-8.659625053,14.97847176
6.083925954,11.5202446,-8.755337715,15.28475285
6.093925954,11.76431274,-8.941978455,15.39960861
6.103925954,11.76431274,-8.941978455,15.39960861
6.113925954,11.76431274,-8.941978455,15.39960861
6.123925954,11.28096199,-11.90429306,19.16591072
6.133925954,11.14217854,-12.68913841,19.91247177
6.143925954,11.44367409,-13.38784313,20.30010986
6.153925954,12.2859478,-14.05304718,20.6686039
6.163925954,13.8795681,-14.25883007,21.09452629
6.173925954,17.98086548,-13.68455315,20.08954048
6.183925954,19.61277008,-13.0576334,18.26621056
6.193925954,21.03889275,-12.33978653,16.47637939
6.203925954,22.39323044,-11.72243786,15.29910946
6.213925954,24.12563515,-11.44965649,15.23211098
6.223925954,26.69552612,-12.44028473,15.77767467
6.233925954,31.77788162,-15.95294857,16.20838165
6.243925954,33.46242905,-18.86740685,16.7156601
6.253925954,33.46242905,-18.86740685,16.7156601
6.263925954,33.46242905,-18.86740685,16.7156601
6.273925954,33.46242905,-18.86740685,16.7156601
6.283925954,33.46242905,-18.86740685,16.7156601
6.293925954,33.46242905,-18.86740685,16.7156601
6.303925954,33.46242905,-18.86740685,16.7156601
6.313925954,14.62134266,-91.38907623,21.4343071
6.323925954,10.83589745,-94.34181976,16.09831238
6.333925954,10.77368355,-98.09854889,10.20239735
6.343925954,8.318648338,-101.371933,2.138585329
6.353925954,2.21216464,-100.165947,-3.666402578
6.363925954,2.21216464,-100.165947,-3.666402578
6.373925954,-22.15634155,-63.15376663,3.775275946
6.383925954,-23.64467621,-48.04548645,8.536993027
6.393925954,-19.05524254,-43.41298294,5.383252621
6.403925954,-13.13061428,-43.63790512,-1.661217093
6.413925954,-12.48455238,-41.75714874,-10.28973579
6.423925954,-25.24308205,-31.90829086,-27.31706238
6.433925954,-33.38825226,-25.83530617,-30.65744209
6.443925954,-38.38925171,-22.38485527,-26.11107826
6.453925954,-40.80599976,-20.1930294,-13.6157589
6.463925954,-39.64787292,-17.99163437,3.119642496
6.473925954,-39.64787292,-17.99163437,3.119642496
6.483925954,-26.92762947,-22.00679016,24.97568512
6.493925954,-26.92762947,-22.00679016,24.97568512
6.503925954,-26.92762947,-22.00679016,24.97568512
6.513925954,-26.92762947,-22.00679016,24.97568512
6.513925954,-4.741377831,-22.37528419,5.469394207
6.533925954,0.183050931,-18.06820297,0.075972117
6.543925954,1.546959877,-16.65643883,0.358325183
6.553925954,1.546959877,-16.65643883,0.358325183
6.563925954,1.546959877,-16.65643883,0.358325183
6.573925954,4.48534584,-13.16770267,9.522835732
6.583925954,5.145765305,-12.77528,10.05404282
6.593925954,4.939982414,-11.77508068,9.671191216
6.603925954,3.906282902,-9.956535339,8.996415138
6.613925954,3.030509949,-7.76949501,8.503493309
6.623925954,3.040081263,-5.639883041,6.326025009
6.633925954,3.040081263,-5.639883041,6.326025009
6.643925954,5.059623718,-5.879165173,3.148356438
6.653925954,5.954539299,-5.697310925,2.148156643
6.663925954,6.150750637,-4.955535889,2.038086653
6.673925954,5.562116146,-4.165904045,2.770290375
6.683925954,4.619344234,-3.984049797,6.699305058
6.693925954,5.045266628,-4.658825874,8.082356453
6.703925954,5.619544029,-5.668596745,8.264211655
6.713925954,6.045466423,-6.20458889,8.288139343
6.723925954,6.050251961,-5.5154562,9.45583725
6.733925954,5.011766911,-4.285545349,11.01595688
6.743925954,3.710071564,-3.558127165,12.21236897
6.753925954,3.370290756,-4.448257446,13.33220959
6.763925954,3.57128787,-5.022534847,12.7005043
6.773925954,3.848855257,-5.663811207,11.72423267
6.783925954,4.183850288,-5.458028316,12.20279694
6.793925954,4.805984497,-4.883750916,13.09292698
6.803925954,5.724828243,-4.902893543,14.40897942
6.813925954,7.366304398,-5.769095421,15.49053574
6.823925954,7.701299667,-6.429514408,14.6769762
6.833925954,7.529016495,-6.625725746,13.70070457
6.843925954,7.529016495,-6.625725746,13.70070457
6.853925954,7.529016495,-6.625725746,13.70070457
6.863925954,7.959724426,-6.735795975,15.5862484
6.873925954,8.801998138,-7.314858913,17.27558136
6.883925954,8.801998138,-7.314858913,17.27558136
6.893925954,12.09930801,-9.473184586,17.2803669
6.903925954,12.47258759,-9.176474571,16.29930878
6.913925954,12.22373486,-8.736195564,15.34696579
6.923925954,12.2859478,-8.578269005,15.22732544
6.933925954,12.6879425,-8.793622971,15.42832184
6.943925954,12.6879425,-8.793622971,15.42832184
6.953925954,12.6879425,-8.793622971,15.42832184
6.963925954,14.74098396,-10.30110168,15.50967789
6.973925954,15.20519161,-10.5978117,15.7058897
6.983925954,15.43968773,-11.1433754,16.03609848
6.993925954,15.58804321,-11.70329571,17.16551208
7.003925954,16.20060539,-12.7944231,19.81197357
7.013925954,16.80838203,-13.52184105,20.12782669
7.023925954,17.02852249,-13.48355579,19.67318916
7.033925954,17.00938034,-13.2203455,18.19921112
7.043925954,17.1673069,-13.54576874,16.36630821
7.053925954,16.83709717,-13.88554955,16.1270256
7.063925954,16.51645851,-13.44527054,17.62014771
7.073925954,17.41615868,-13.26341629,20.49632072
7.083925954,19.04806519,-13.42612743,20.77867317
7.093925954,21.63231277,-14.20140266,19.85504341
7.103925954,24.92962265,-16.17787361,18.26621056
7.113925954,28.28436089,-19.97289085,16.83051682
7.123925954,31.6247406,-25.53380966,16.94537163
7.133925954,31.6247406,-25.53380966,16.94537163
7.143925954,31.6247406,-25.53380966,16.94537163
7.153925954,31.6247406,-25.53380966,16.94537163
7.163925954,33.7830658,-82.53562927,16.54337692
7.173925954,29.76312447,-100.3334427,8.47956562
7.183925954,21.4600296,-112.6516953,0.171685025
7.193925954,11.22832012,-118.4040451,-2.503490686
7.203925954,11.22832012,-118.4040451,-2.503490686
7.213925954,-21.29492569,-89.19725037,3.023929596
7.223925954,-22.2376976,-69.37032318,3.267997503
7.233925954,-15.86800289,-60.00481415,-0.527019203
7.243925954,-8.459824562,-57.57370377,-6.274579048
7.253925954,-1.692921996,-60.95236969,-17.57348824
7.263925954,-1.692921996,-60.95236969,-17.57348824
7.273925954,-34.44587708,-38.25884247,-30.90629578
7.283925954,-44.84508514,-30.5204525,-26.5800724
7.293925954,-50.29114914,-25.35195541,-14.97009659
7.303925954,-50.18586731,-20.78644943,2.47358036
7.313925954,-47.27619171,-18.12563133,16.73001862
7.323925954,-43.46681976,-20.15953064,17.99821281
7.333925954,-43.46681976,-20.15953064,17.99821281
7.343925954,-43.46681976,-20.15953064,17.99821281
7.353925954,-43.46681976,-20.15953064,17.99821281
7.363925954,-5.688935757,-27.18485832,-4.302893162
7.373925954,-0.108873427,-25.52423859,-0.043669011
7.383925954,1.891526341,-22.8394928,2.822932482
7.393925954,2.00638175,-16.57029724,5.388038158
7.403925954,2.13559413,-13.81376553,6.249454498
7.413925954,2.719442844,-11.95693493,6.163312912
7.423925954,2.700300455,-11.18166065,4.521836758
7.433925954,1.78145647,-9.913464546,2.784647465
7.443925954,1.78145647,-9.913464546,2.784647465
7.453925954,1.78145647,-9.913464546,2.784647465
7.463925954,1.78145647,-9.913464546,2.784647465
7.473925954,1.78145647,-9.913464546,2.784647465
7.483925954,1.78145647,-9.913464546,2.784647465
7.493925954,4.456632137,-5.333601475,7.642077446
7.503925954,6.495316982,-4.945964336,6.278168201
7.513925954,7.749155998,-4.299902439,4.938187599
7.523925954,7.127022266,-3.553341627,3.914059639
7.533925954,6.605386734,-3.811766386,4.646263599
7.543925954,6.050251961,-4.443471432,6.081956863
7.553925954,5.246263504,-5.472385406,8.082356453
7.563925954,5.073980331,-6.252445698,10.83888817
7.573925954,5.772684574,-6.161518097,14.13619804
7.583925954,6.801598549,-8.10449028,15.78724575
7.593925954,5.595615864,-9.262616158,14.76790333
7.603925954,5.073980331,-9.966106415,13.57627773
7.613925954,4.198207378,-10.11924744,12.97328663
7.623925954,3.686143398,-10.09531879,13.17428303
7.633925954,4.652843475,-10.46859932,13.99741459
7.643925954,6.270391941,-12.1292181,14.50469303
7.653925954,9.529416084,-14.35454273,14.57647705
7.663925954,9.529416084,-14.35454273,14.57647705
7.673925954,9.529416084,-14.35454273,14.57647705
7.683925954,10.36211872,-13.35434341,11.34138107
7.693925954,9.500701904,-12.70349503,10.7862463
7.703925954,9.079565048,-12.19621658,10.35553837
7.713925954,9.079565048,-12.19621658,10.35553837
7.723925954,9.079565048,-12.19621658,10.35553837
7.733925954,8.222934723,-11.28694439,12.1980114
7.733925954,8.222934723,-11.28694439,12.1980114
7.753925954,6.677171707,-12.56949711,11.86301613
7.763925954,5.404190063,-12.81835079,12.04008579
7.773925954,4.82034111,-13.10070419,12.35115242
7.783925954,4.906482697,-14.05783272,13.03549957
7.793925954,4.973481655,-14.41675663,12.65264797
7.803925954,4.987838745,-14.39761353,12.580863
7.813925954,5.404190063,-14.38325691,12.74836063
7.823925954,6.380461693,-14.34018612,13.03071404
7.833925954,7.514659405,-14.37368584,12.81536007
7.843925954,7.514659405,-14.37368584,12.81536007
7.853925954,7.514659405,-14.37368584,12.81536007
7.863925954,13.14257813,-13.69412422,14.35155201
7.873925954,14.87019634,-13.26341629,14.88275909
7.883925954,16.87059593,-12.82792187,14.30369568
7.893925954,18.53600121,-12.50249863,13.45663643
7.903925954,18.53600121,-12.50249863,13.45663643
7.913925954,24.71905518,-11.60279655,14.79183102
7.923925954,26.83909607,-12.21057415,14.22712517
7.933925954,29.14099121,-13.7036953,13.4662075
7.943925954,31.59124184,-15.6801672,13.5284214
7.953925954,32.94557953,-18.73819351,13.43749332
7.963925954,34.39562988,-24.772892,13.04985619
7.973925954,32.21337509,-40.79044724,18.66341782
7.983925954,29.76312447,-51.56293488,23.769701
7.993925954,29.76312447,-51.56293488,23.769701
8.003925954,27.71965408,-83.18647766,27.95714188
8.013925954,23.2546463,-98.03154755,23.84627151
8.023925954,19.27298927,-112.3549881,19.69233131
8.033925954,19.27298927,-112.3549881,19.69233131
8.033925954,4.84905529,-126.4582825,14.44247913
8.053925954,2.61415863,-119.6578827,6.440880299
8.063925954,2.001596212,-110.3210907,-0.297308207
8.073925954,2.317448616,-100.8742218,-2.3216362
8.083925954,2.154736757,-90.98229218,-2.919841766
8.093925954,2.030309916,-80.28637695,-4.781457901
8.103925954,2.772084951,-67.87241364,-14.61117363
8.113925954,-2.023131609,-61.03372574,-19.04746628
8.123925954,-7.713263988,-54.12325668,-22.46920204
8.133925954,-7.713263988,-54.12325668,-22.46920204
8.143925954,-20.08894157,-38.94797516,-22.66541481
8.153925954,-25.40100861,-32.63092422,-24.39781761
8.163925954,-25.40100861,-32.63092422,-24.39781761
8.173925954,-25.40100861,-32.63092422,-24.39781761
8.183925954,-25.40100861,-32.63092422,-24.39781761
8.193925954,-40.13600922,-16.52722549,-14.49631786
8.203925954,-38.76253128,-16.35972786,-10.13659477
8.213925954,-32.44548035,-21.32244301,-4.436891556
8.223925954,-26.57349205,-25.95494652,0.0951147
8.233925954,-15.3415823,-28.8885479,0.166899383
8.243925954,-9.105886459,-28.6253376,-3.427120209
8.253925954,-3.693321705,-27.4959259,-6.834499836
8.263925954,0.474975288,-25.5003109,-8.136195183
8.273925954,3.059223652,-23.14577293,-7.313064098
8.283925954,4.188635826,-20.83430672,-5.078167915
8.293925954,4.188635826,-20.83430672,-5.078167915
8.303925954,4.753342152,-15.21117401,4.832903385
8.313925954,4.753342152,-15.21117401,4.832903385
8.323925954,2.475374937,-11.75593758,7.326224804
8.333925954,1.666600943,-10.56909752,7.651648521
8.343925954,1.451246977,-9.487542152,7.622934818
8.353925954,1.771885157,-9.052047729,8.034500122
8.363925954,4.791627407,-9.521040916,9.278767586
8.373925954,6.830312252,-9.497113228,8.737990379
8.383925954,8.404789925,-8.539983749,8.556135178
8.393925954,9.333204269,-6.946363926,7.93878746
8.403925954,9.381061554,-5.462814331,7.704290867
8.413925954,8.553144455,-4.797609329,7.776075363
8.423925954,5.978467464,-6.099305153,9.924830437
8.433925954,5.983253002,-7.558926582,10.42732334
8.443925954,6.591030121,-8.109275818,10.98245811
8.453925954,6.327819347,-8.118846893,11.36052418
8.463925954,5.997610092,-9.1860466,11.10688496
8.473925954,6.174678802,-11.16251755,10.63789082
8.483925954,6.174678802,-11.16251755,10.63789082
8.493925954,6.174678802,-11.16251755,10.63789082
8.503925954,6.174678802,-11.16251755,10.63789082
8.513925954,9.931410789,-13.89512062,11.03031445
8.523925954,11.50588799,-13.43569946,10.48475075
8.533925954,12.65444279,-12.75613785,10.71446133
8.543925954,13.56371498,-12.86620712,10.51825047
8.553925954,13.56371498,-12.86620712,10.51825047
8.563925954,9.902696609,-14.44546986,11.92523003
8.573925954,8.969495773,-14.85703564,14.08834171
8.583925954,8.792427063,-15.28295803,15.87338734
8.593925954,9.433703423,-15.40738487,16.42852211
8.603925954,10.46261692,-15.32124329,15.34696579
8.613925954,11.22832012,-14.60339642,10.93938732
8.623925954,11.06560802,-14.31147194,9.896116257
8.633925954,10.74975586,-14.29232979,10.09711361
8.643925954,10.24247742,-14.41675663,11.0063858
8.653925954,10.01755238,-14.63689613,12.0975132
8.663925954,10.27597713,-15.27817249,12.47079372
8.673925954,10.79282665,-16.44586945,11.66201973
8.683925954,10.46261692,-17.86242104,10.92981529
8.693925954,10.77847004,-17.9581337,12.25543976
8.703925954,11.68774223,-17.54178238,13.54277802
8.713925954,13.47757339,-16.62772369,14.054842
8.723925954,16.36331749,-15.2973156,13.60020542
8.733925954,20.06262207,-13.71805191,12.34636688
8.743925954,20.06262207,-13.71805191,12.34636688
8.753925954,20.06262207,-13.71805191,12.34636688
8.763925954,20.06262207,-13.71805191,12.34636688
8.773925954,37.23351669,-25.11267281,7.953144073
8.783925954,38.42035675,-31.50629616,9.417551994
8.793925954,37.94657898,-38.23970032,12.01615715
8.803925954,36.08974838,-45.84887314,15.06939888
8.813925954,36.08974838,-45.84887314,15.06939888
8.823925954,21.99602127,-85.73722839,16.59601974
8.833925954,14.0997076,-103.7551804,12.9637146
8.843925954,4.504488468,-114.3171005,14.07877064
8.853925954,-1.46321106,-117.9254761,19.76890182
8.863925954,-0.936790049,-127.64991,14.79183102
8.873925954,-4.736592293,-111.8381348,12.43729401
8.883925954,0.55154562,-111.5940704,7.570292473
8.893925954,0.699900627,-103.7695389,3.535993576
8.903925954,2.082952023,-92.49934387,1.382453322
8.913925954,2.082952023,-92.49934387,1.382453322
8.923925954,11.9653101,-91.33164978,-11.47657585
8.933925954,11.9653101,-91.33164978,-11.47657585
8.943925954,11.9653101,-91.33164978,-11.47657585
8.953925954,11.9653101,-91.33164978,-11.47657585
8.963925954,-27.3583374,-37.61277771,-6.801000118
8.973925954,-21.72084808,-37.48835373,-0.799800992
8.983925954,-20.98385811,-35.16731262,4.138985157
8.993925954,-22.84547424,-33.07598877,3.971487284
9.003925954,-38.84867096,-20.29352951,-9.921240807
9.013925954,-44.95515442,-11.2438736,-6.954140663
9.023925954,-41.4137764,-12.13878918,-2.197209358
9.033925954,-32.81397247,-15.6801672,3.430709362
9.043925954,-23.18525505,-18.30748558,8.436494827
9.053925954,-14.4753809,-21.54258156,11.22173977
9.063925954,-2.999403238,-25.71566582,10.05882835
9.073925954,-1.769492388,-24.40439796,6.732804775
9.083925954,-2.616551638,-21.2458725,3.78484726
9.093925954,-3.310470104,-18.60419655,1.526022673
9.103925954,-3.090330362,-17.23071671,-0.086739823
9.113925954,-2.252842426,-16.66122437,-1.039083242
9.123925954,-1.386640668,-15.93859196,-1.067797065
9.133925954,-1.386640668,-15.93859196,-1.067797065
9.143925954,-1.386640668,-15.93859196,-1.067797065
9.153925954,-1.386640668,-15.93859196,-1.067797065
9.163925954,1.59003067,-12.10528946,5.01475811
9.173925954,0.585045159,-10.65523911,6.589235306
9.183925954,-0.34337005,-8.903693199,8.589634895
9.193925954,-0.34337005,-8.903693199,8.589634895
9.203925954,-0.34337005,-8.903693199,8.589634895
9.213925954,4.413561344,-8.597412109,4.8376894
9.223925954,5.854040623,-8.965906143,1.449452281
9.233925954,6.672386169,-8.482556343,0.272183567
9.243925954,6.638886452,-7.568498135,1.157527924
9.253925954,6.940382004,-6.999006271,4.205984116
9.263925954,6.940382004,-6.999006271,4.205984116
9.273925954,11.2570343,-8.453842163,12.81536007
9.283925954,12.69751358,-8.43948555,14.3946228
9.293925954,13.38186073,-8.415556908,14.74876022
9.303925954,12.66401386,-7.697710514,14.26541042
9.313925954,11.1948204,-7.329215527,12.81536007
9.323925954,9.74477005,-8.760123253,13.25563908
9.333925954,9.931410789,-10.70309544,14.22712517
9.343925954,9.955338478,-11.966506,15.71546078
9.353925954,10.72582722,-11.98086262,17.46700668
9.363925954,11.92223835,-11.49751282,17.70628929
9.373925954,12.84586811,-11.2008028,16.58644867
9.383925954,11.26660538,-9.803394318,13.63370514
9.393925954,10.46740246,-9.611968994,12.83450222
9.403925954,9.701699257,-9.59282589,13.0259285
9.413925954,9.208778381,-9.79860878,13.69113255
9.423925954,9.208778381,-9.79860878,13.69113255
9.433925954,7.36151886,-10.9184494,14.05005646
9.443925954,6.17946434,-11.04766178,14.64347649
9.453925954,6.17946434,-11.04766178,14.64347649
9.463925954,6.17946434,-11.04766178,14.64347649
9.473925954,6.17946434,-11.04766178,14.64347649
9.483925954,5.298905849,-9.6693964,11.15952682
9.493925954,5.629115105,-9.693324089,9.431908607
9.503925954,5.322834015,-9.554540634,8.350353241
9.513925954,5.322834015,-9.554540634,8.350353241
9.523925954,8.017151833,-9.717252731,9.513264656
9.523925954,8.017151833,-9.717252731,9.513264656
9.543925954,11.44367409,-9.233902931,9.934401512
9.553925954,13.83171082,-8.908478737,10.1210413
9.563925954,16.20060539,-9.037691116,9.307481766
9.573925954,18.66042709,-9.525827408,8.718847275
9.583925954,23.52264214,-11.41137123,9.436694145
9.593925954,26.36531639,-13.03370476,11.04467106
9.603925954,29.68655396,-14.91924953,12.40857983
9.613925954,29.68655396,-14.91924953,12.40857983
9.623925954,37.22872925,-20.74337959,13.32742405
9.633925954,39.36791611,-25.25624275,12.55693531
9.643925954,39.36791611,-25.25624275,12.55693531
9.653925954,39.36791611,-25.25624275,12.55693531
9.663925954,39.36791611,-25.25624275,12.55693531
9.673925954,25.01576424,-85.55537415,25.93759918
9.683925954,19.77069664,-104.1763229,24.29133797
9.693925954,16.06660843,-125.7308655,16.58166313
9.703925954,7.428517818,-139.7958832,7.575078487
9.713925954,-19.69173431,-131.21521,-5.283950806
9.723925954,-23.74039078,-114.6903839,-6.456433773
9.733925954,-22.20419693,-95.6147995,-3.216551781
9.743925954,-16.13599968,-81.21000671,0.937388241
9.753925954,-10.04387283,-73.28019714,-0.852443039
9.763925954,-10.30708313,-66.39364624,-8.696115494
9.773925954,-16.29871178,-46.99742889,-21.29193497
9.783925954,-16.29871178,-46.99742889,-21.29193497
9.793925954,-16.29871178,-46.99742889,-21.29193497
9.803925954,-16.29871178,-46.99742889,-21.29193497
9.813925954,-16.29871178,-46.99742889,-21.29193497
9.823925954,-20.93600082,-13.53141212,-22.88076782
9.833925954,-22.92683029,-8.975478172,-21.34936142
9.843925954,-22.92683029,-8.975478172,-21.34936142
9.853925954,-32.44548035,-6.37687254,-19.75574112
9.863925954,-34.73780441,-6.525227547,-13.89332676
9.873925954,-30.18665314,-10.46859932,-6.915855408
9.883925954,-30.18665314,-10.46859932,-6.915855408
9.893925954,-19.70130539,-16.69950867,4.009772778
9.903925954,-10.46500969,-16.2257309,-0.498305321
9.913925954,-7.536194801,-14.35454273,-4.872385025
9.923925954,-5.736792088,-12.25364494,-7.801199913
9.933925954,-4.444668293,-11.26780224,-8.24147892
9.943925954,-3.497110367,-11.66979599,-6.920641422
9.953925954,-3.932604074,-12.60299683,-4.475176334
9.963925954,-6.617351055,-12.78963661,5.005186558
9.973925954,-6.880561352,-12.70349503,9.340981483
9.983925954,-6.421139717,-12.67956734,11.79123211
9.993925954,-5.511867046,-12.08614731,12.66221905
10.00392595,-5.511867046,-12.08614731,12.66221905
10.01392595,-5.511867046,-12.08614731,12.66221905
10.02392595,-2.563909531,-7.247859955,9.312267303
10.03392595,-2.563909531,-7.247859955,9.312267303
10.04392595,-2.563909531,-7.247859955,9.312267303
10.05392595,-2.563909531,-7.247859955,9.312267303
10.06392595,-2.563909531,-7.247859955,9.312267303
10.07392595,-0.429511666,-3.83569479,9.364909172
10.08392595,0.690329313,-4.122833252,12.08794212
10.09392595,0.690329313,-4.122833252,12.08794212
10.10392595,4.939982414,-6.23330307,12.93021584
10.11392595,6.00239563,-6.664011002,11.07338524
10.12392595,5.983253002,-6.75972414,9.32662487
10.13392595,4.935196877,-6.855436802,8.359924316
10.14392595,3.528217077,-7.573283672,8.254639626
10.15392595,2.255235434,-8.611768723,9.570692062
10.16392595,1.570888042,-10.48774147,15.19382572
10.17392595,2.963510752,-11.41615677,16.1892395
10.18392595,5.006981373,-11.50229836,15.160326
10.19392595,5.006981373,-11.50229836,15.160326
10.20392595,7.691728592,-10.34895802,8.838488579
10.21392595,8.672785759,-10.95673466,6.962515831
10.22392595,8.672785759,-10.95673466,6.962515831
10.23392595,8.672785759,-10.95673466,6.962515831
10.24392595,8.672785759,-10.95673466,6.962515831
10.25392595,6.945167542,-14.40718555,13.77248859
10.26392595,7.150950432,-14.24447346,13.25085354
10.27392595,7.653443336,-14.11047554,12.3607235
10.28392595,8.299505234,-14.01476192,11.15952682
10.29392595,8.299505234,-14.01476192,11.15952682
10.30392595,9.251849174,-13.47877026,9.111269951
10.31392595,9.543772697,-13.00499153,9.800403595
10.32392595,9.830911636,-12.91884899,10.33160973
10.33392595,10.08455086,-13.12941742,10.5038929
10.34392595,10.13719273,-13.55055428,10.18804073
10.35392595,9.462417603,-14.10090351,10.44167995
10.36392595,9.26142025,-14.4693985,10.55174923
10.37392595,9.069993973,-14.56511116,10.36989498
10.38392595,9.357132912,-14.49332714,9.795618057
10.39392595,9.92183876,-14.40239906,9.135198593
10.40392595,10.7545414,-14.71346664,8.010572433
10.41392595,10.7545414,-14.71346664,8.010572433
10.42392595,10.7545414,-14.71346664,8.010572433
10.43392595,16.51167297,-15.2973156,9.388837814
10.44392595,19.40220261,-16.0008049,9.690333366
10.45392595,23.02493668,-17.17328835,10.19761181
10.46392595,27.74836731,-18.95833397,10.33639526
10.47392595,32.79722214,-21.98764801,10.63310528
10.48392595,41.47359848,-33.63590622,11.67159081
10.49392595,42.46901321,-41.20679855,12.78186035
10.50392595,42.94757843,-52.08457184,14.80140305
10.51392595,40.48775482,-66.8387146,16.50509262
10.52392595,33.52464294,-83.26783752,18.25185204
10.53392595,26.89652252,-102.611412,19.16112518
10.54392595,26.89652252,-102.611412,19.16112518
10.55392595,26.89652252,-102.611412,19.16112518
10.56392595,26.89652252,-102.611412,19.16112518
10.57392595,26.89652252,-102.611412,19.16112518
10.58392595,-11.87198925,-95.72008514,6.818946362
10.59392595,-4.085744858,-84.95238495,6.043671608
10.60392595,1.613958836,-76.45307922,1.353739381
10.61392595,6.064609051,-74.11289215,-16.94656754
10.62392595,-0.879362345,-74.56274414,-34.19403458
10.63392595,-15.02573013,-58.47819138,-33.32783127
10.64392595,-26.57827759,-37.17728424,-24.46960258
10.65392595,-24.72144699,-28.77369308,-18.81775475
10.66392595,-18.95474434,-28.4626255,-17.59741592
10.67392595,-18.95474434,-28.4626255,-17.59741592
10.68392595,-18.95474434,-28.4626255,-17.59741592
10.69392595,-18.95474434,-28.4626255,-17.59741592
10.70392595,-18.95474434,-28.4626255,-17.59741592
10.71392595,-33.50310516,-11.966506,-11.44786167
10.72392595,-29.55016327,-14.22533035,-3.374478102
10.73392595,-29.55016327,-14.22533035,-3.374478102
10.74392595,-29.55016327,-14.22533035,-3.374478102
10.75392595,-29.55016327,-14.22533035,-3.374478102
10.76392595,-29.55016327,-14.22533035,-3.374478102
10.77392595,-4.095315933,-16.21137428,-2.575275421
10.78392595,-2.511267424,-15.81416512,-0.273379982
10.79392595,-1.956132531,-14.88096428,3.492922783
10.80392595,-1.956132531,-14.88096428,3.492922783
10.81392595,-1.956132531,-14.88096428,3.492922783
10.82392595,0.058624156,-8.889336586,9.135198593
10.83392595,2.408375978,-8.41077137,6.014957905
10.84392595,4.317848682,-8.099704742,2.990430117
10.85392595,5.437689304,-7.740781307,1.463809252
10.86392595,4.782055855,-5.146961689,5.086542606
10.87392595,4.442275047,-4.180261135,7.766504288
10.88392595,4.810770035,-4.17069006,9.470193863
10.89392595,4.810770035,-4.17069006,9.470193863
10.90392595,5.514259815,-3.022135019,8.115856171
10.91392595,5.523830891,-1.897508383,5.895316601
10.92392595,5.466403484,-1.356730461,4.18205595
10.93392595,2.843869686,0.16031912,5.866602898
10.94392595,2.226521492,-0.184247345,7.833503246
10.95392595,2.260020971,-1.605584025,8.81456089
10.96392595,2.279163599,-3.065205812,8.536993027
10.97392595,2.475374937,-4.0127635,9.010771751
10.98392595,3.073580742,-3.572484255,11.13081264
10.99392595,2.183450699,-0.930808008,13.73420334
11.00392595,2.02073884,-1.256231904,12.44207954
11.01392595,2.02073884,-1.256231904,12.44207954
11.02392595,2.02073884,-1.256231904,12.44207954
11.03392595,5.854040623,-3.912265062,8.919844627
11.04392595,7.21794939,-5.084748268,8.513064384
11.05392595,8.117650986,-5.678168297,9.264410973
11.06392595,8.117650986,-5.678168297,9.264410973
11.07392595,8.117650986,-5.678168297,9.264410973
11.08392595,6.748956203,-3.548556089,15.11725521
11.09392595,6.748956203,-3.548556089,15.11725521
11.10392595,9.462417603,-5.903093338,11.44187927
11.11392595,10.0462656,-6.563512325,9.766903877
11.12392595,8.993423462,-5.788238049,10.21196842
11.13392595,8.447860718,-5.242674351,11.772089
11.14392595,8.447860718,-5.242674351,11.772089
11.15392595,7.658228874,-4.338187218,13.58106327
11.16392595,8.026723862,-4.175475597,13.65763378
11.17392595,8.59142971,-4.481756687,13.38485146
11.18392595,8.912068367,-4.768895626,13.04028511
11.19392595,8.222934723,-6.04187727,12.33200932
11.20392595,7.462017536,-6.630511761,12.70528984
11.21392595,7.462017536,-6.630511761,12.70528984
11.22392595,7.127022266,-7.60678339,14.76311779
11.23392595,7.820940971,-8.080561638,15.28953838
11.24392595,8.883354187,-8.46819973,15.25603867
11.25392595,10.84068298,-8.894122124,14.60519123
11.26392595,10.84068298,-8.894122124,14.60519123
11.27392595,10.84068298,-8.894122124,14.60519123
11.28392595,12.77886963,-9.865608215,14.95454311
11.29392595,12.77886963,-9.865608215,14.95454311
11.30392595,12.63529968,-11.99522018,14.60519123
11.31392595,12.50130177,-14.14875984,14.78704548
11.32392595,13.2143631,-14.92403507,14.2941246
11.33392595,14.67398453,-15.10110378,13.45663643
11.34392595,16.94238091,-14.61296749,12.7627182
11.35392595,19.67976952,-14.17268848,11.26002502
11.36392595,23.62314224,-14.37847137,9.005986214
11.37392595,28.28914642,-15.25903034,7.197012424
11.38392595,28.28914642,-15.25903034,7.197012424
11.39392595,28.28914642,-15.25903034,7.197012424
11.40392595,49.39862823,-26.43351173,10.31246758
11.41392595,54.50012589,-32.27678299,9.742975235
11.42392595,54.95476151,-40.24488449,9.273982048
11.43392595,50.26961517,-48.99782944,13.75813198
11.44392595,50.26961517,-48.99782944,13.75813198
11.45392595,40.44468307,-96.95956421,41.48616028
11.46392595,44.93840408,-129.439743,32.991642
11.47392595,36.5826683,-156.7801361,17.79243088
11.48392595,18.46421623,-156.7801361,7.120441914
11.49392595,1.374676585,-156.7801361,5.675177097
11.50392595,-7.478767395,-146.5244904,3.555136204
11.51392595,-7.478767395,-146.5244904,3.555136204
11.52392595,-5.148158073,-102.8506927,-10.27537823
11.53392595,-5.148158073,-102.8506927,-10.27537823
11.54392595,-5.148158073,-102.8506927,-10.27537823
11.55392595,-7.330412388,-54.29075241,-26.70449829
11.56392595,-5.947360516,-48.79204559,-33.45704269
11.57392595,-16.05464363,-31.60200882,-35.45265961
11.57392595,-16.05464363,-31.60200882,-35.45265961
11.59392595,-30.67000389,-19.76232147,-29.6668129
11.60392595,-30.67000389,-19.76232147,-29.6668129
11.61392595,-30.67000389,-19.76232147,-29.6668129
11.62392595,-35.03929901,-11.41137123,9.254839897
11.63392595,-29.36352348,-13.87597847,16.50987816
11.64392595,-29.36352348,-13.87597847,16.50987816
11.65392595,-29.36352348,-13.87597847,16.50987816
11.66392595,-8.684749603,-16.63729668,0.645463884
11.67392595,-5.023731232,-16.24487305,-0.972084224
11.68392595,-1.769492388,-15.91944885,0.358325183
11.69392595,0.59940207,-15.52224064,2.765504837
11.70392595,0.59940207,-15.52224064,2.765504837
11.71392595,2.939582586,-10.73659515,8.278568268
11.72392595,2.939582586,-10.73659515,8.278568268
11.73392595,2.19780755,-7.286144733,4.703691006
11.74392595,2.19780755,-7.286144733,4.703691006
11.75392595,1.944168448,-6.735795975,0.841675341
11.76392595,2.647658348,-6.558726788,0.592821836
11.77392595,3.422932863,-6.324230194,2.909074068
11.78392595,3.245863914,-6.137589931,5.153541565
11.79392595,3.633501291,-5.869594097,7.407580853
11.80392595,3.633501291,-5.869594097,7.407580853
11.81392595,5.648257732,-6.577869415,7.828717709
11.81392595,5.648257732,-6.577869415,7.828717709
11.83392595,5.648257732,-6.577869415,7.828717709
11.84392595,5.648257732,-6.577869415,7.828717709
11.85392595,1.618744493,-2.715853691,7.192226887
11.86392595,1.929811478,-3.902693748,6.847660065
11.87392595,2.240878344,-5.247459888,6.531807423
11.88392595,1.920240164,-6.42472887,6.718447685
11.89392595,0.762113988,-4.02712059,10.1210413
11.90392595,0.762113988,-4.02712059,10.1210413
11.91392595,0.049052864,-5.075176716,12.65743351
11.92392595,0.494117886,-6.386443615,12.29851055
11.93392595,1.054038405,-6.955935478,11.6524477
11.94392595,1.728814363,-6.884150982,11.18824005
11.95392595,2.365305185,-6.443871498,11.29831028
11.96392595,2.767299414,-5.343173027,12.73400402
11.97392595,2.992224693,-6.056233883,13.22213936
11.98392595,2.992224693,-6.056233883,13.22213936
11.99392595,3.413361549,-9.932606697,14.00220013
12.00392595,2.843869686,-10.89452171,14.56690598
12.01392595,2.24566412,-11.48794174,15.25125313
12.02392595,2.24566412,-11.48794174,15.25125313
12.03392595,2.24566412,-11.48794174,15.25125313
12.04392595,2.24566412,-11.48794174,15.25125313
12.05392595,6.457031727,-11.47358418,14.36590862
12.06392595,7.734799385,-10.43031406,14.52383518
12.07392595,8.347361565,-9.597611427,14.47597885
12.08392595,7.849654675,-9.497113228,13.61934853
12.09392595,7.849654675,-9.497113228,13.61934853
12.10392595,7.849654675,-9.497113228,13.61934853
12.11392595,7.849654675,-9.497113228,13.61934853
12.12392595,2.427518606,-9.889535904,16.98365784
12.13392595,3.245863914,-9.923035622,16.57209206
12.14392595,4.059423447,-9.631111145,15.160326
12.15392595,4.059423447,-9.631111145,15.160326
12.16392595,4.059423447,-9.631111145,15.160326
12.17392595,5.643472195,-9.248259544,12.60479164
12.18392595,5.801398277,-9.793823242,12.93500137
12.19392595,6.169893265,-10.61695385,13.84427357
12.20392595,6.380461693,-11.22473145,14.8779726
12.21392595,6.787241459,-11.80857944,15.77767467
12.22392595,7.53858757,-12.66999626,16.23231125
12.23392595,8.041080475,-13.09591866,16.20838165
12.24392595,8.921639442,-13.21077347,15.97388554
12.25392595,10.07497978,-13.0576334,16.10309792
12.26392595,11.72602749,-12.8949213,15.93081474
12.27392595,13.39621735,-12.5120697,16.28495216
12.28392595,13.39621735,-12.5120697,16.28495216
12.29392595,13.39621735,-12.5120697,16.28495216
12.30392595,22.98186493,-9.79860878,16.93101501
12.31392595,26.7433815,-9.745966911,15.85424423
12.32392595,30.61975479,-10.58824062,15.40917969
12.33392595,34.53919983,-12.49771309,15.79681683
12.34392595,34.53919983,-12.49771309,15.79681683
12.35392595,34.53919983,-12.49771309,15.79681683
12.36392595,41.6889534,-47.95455933,34.53261948
12.37392595,38.61178207,-64.56074524,41.28516388
12.38392595,35.77389526,-85.51708984,49.73182678
12.39392595,31.43331528,-111.4505005,48.24827576
12.40392595,22.89093781,-135.9003601,38.14099503
12.41392595,22.89093781,-135.9003601,38.14099503
12.42392595,22.89093781,-135.9003601,38.14099503
12.43392595,-1.984846354,-134.6225891,-1.220937729
12.44392595,-4.119244099,-122.7111206,-10.82572746
12.45392595,-6.239284992,-111.7519989,-15.1663084
12.46392595,-10.58943653,-101.271431,-25.62294388
12.47392595,-10.58943653,-101.271431,-25.62294388
12.48392595,-43.42853546,-30.82673454,-43.99982071
12.49392595,-29.23909569,-30.32424164,-40.16651917
12.50392595,-18.0215435,-29.79303551,-34.60559845
12.51392595,-17.50947952,-23.8061924,-31.55714417
12.52392595,-21.12264252,-19.42254066,-27.79084015
12.53392595,-25.43929482,-17.52742577,-23.23969078
12.54392595,-31.99084282,-16.23051643,-2.766701221
12.55392595,-31.99084282,-16.23051643,-2.766701221
12.56392595,-26.54956436,-18.33620071,20.83610153
12.57392595,-22.4004097,-18.38405609,17.78764534
12.58392595,-19.76351929,-16.74258041,9.010771751
12.59392595,-17.71047592,-14.33061504,0.946959555
12.60392595,-17.71047592,-14.33061504,0.946959555
12.61392595,-6.181857109,-11.99522018,0.133399859
12.62392595,-2.592623234,-11.9090786,1.975873351
12.63392595,-0.644865692,-10.84666538,3.923630953
12.64392595,-0.644865692,-10.84666538,3.923630953
12.65392595,0.427118838,-7.133004189,5.866602898
12.66392595,0.427118838,-7.133004189,5.866602898
12.67392595,0.427118838,-7.133004189,5.866602898
12.68392595,0.427118838,-7.133004189,5.866602898
12.69392595,-3.253042459,-2.208575249,3.502494097
12.70392595,-3.492324591,-2.371287346,3.88056016
12.71392595,-3.34875536,-2.969492912,4.28255415
12.72392595,-3.071187973,-3.524627686,4.799404144
12.73392595,-3.071187973,-3.524627686,4.799404144
12.74392595,-3.071187973,-3.524627686,4.799404144
12.75392595,0.704686284,-4.180261135,8.37428093
12.76392595,1.130608678,-4.548755646,8.761918068
12.77392595,0.958325446,-4.855037212,9.26919651
12.78392595,0.943968534,-5.056034088,10.35553837
12.79392595,2.063809633,-5.596812248,11.86301613
12.80392595,2.063809633,-5.596812248,11.86301613
12.81392595,3.317648649,-5.950950146,11.59023476
12.82392595,3.408575773,-5.481956482,12.0352993
12.83392595,3.413361549,-5.247459888,12.67657661
12.84392595,3.724428415,-5.175675392,13.80120277
12.85392595,3.911068678,-5.434100151,14.70568943
12.86392595,3.456432343,-6.467799664,15.45703602
12.87392595,3.016152859,-6.467799664,15.6436758
12.88392595,2.891726255,-6.381658077,15.57667732
12.89392595,3.413361549,-6.711867332,15.09811306
12.90392595,4.059423447,-6.979863644,14.73440361
12.91392595,4.298706055,-7.204789162,14.16969776
12.92392595,4.298706055,-7.204789162,14.16969776
12.93392595,4.298706055,-7.204789162,14.16969776
12.94392595,4.298706055,-7.204789162,14.16969776
12.95392595,8.452646255,-8.511270523,13.68156147
12.96392595,9.366703987,-8.343772888,12.53300667
12.97392595,10.05583763,-8.487341881,11.23609734
12.98392595,10.56790161,-8.453842163,10.67617607
12.99392595,10.56790161,-8.453842163,10.67617607
13.00392595,11.07518005,-9.320044518,13.57627773
13.01392595,11.06560802,-9.645467758,14.79661655
13.02392595,11.06560802,-9.645467758,14.79661655
13.03392595,11.58245754,-10.58824062,15.28475285
13.04392595,11.92223835,-11.0811615,15.11725521
13.05392595,11.92223835,-11.0811615,15.11725521
13.06392595,12.7884407,-12.42114258,16.8161602
13.07392595,13.82692528,-12.33500099,17.58664894
13.08392595,15.28176212,-12.37328625,17.54836273
13.09392595,17.38265991,-12.97627735,16.45723534
13.10392595,19.20599174,-13.12941742,14.90668678
13.11392595,20.60339928,-13.37348557,13.12164116
13.12392595,22.6516552,-14.60818195,12.07358456
13.13392595,23.60399818,-15.55574036,12.71964741
13.14392595,25.00140762,-16.80479431,13.44706535
13.15392595,26.57109833,-18.59941101,13.99741459
13.16392595,28.20779037,-20.37488556,14.72483253
13.17392595,30.3948288,-23.22712898,15.00239944
13.18392595,30.3948288,-23.22712898,15.00239944
13.19392595,35.59204102,-40.18745804,15.30868149
13.20392595,36.42474365,-50.54837799,15.87817287
13.21392595,36.36252975,-64.36932373,16.83530235
13.22392595,35.0129776,-82.19106293,17.67279053
13.23392595,28.60978317,-98.4000473,17.89771461
13.24392595,18.47378731,-106.0044327,17.70628929
13.25392595,18.47378731,-106.0044327,17.70628929
13.26392595,18.47378731,-106.0044327,17.70628929
13.27392595,18.47378731,-106.0044327,17.70628929
13.28392595,-12.57069397,-98.21819305,4.009772778
13.29392595,-10.19701385,-90.11130524,2.760719061
13.30392595,-6.674778938,-87.37870789,-5.331807137
13.31392595,-6.674778938,-87.37870789,-5.331807137
13.32392595,-27.69811821,-78.86504364,-53.58546829
13.33392595,-53.2726059,-43.2215538,-64.82216644
13.34392595,-64.03552246,-18.50369835,-60.30929947
13.35392595,-56.65605927,-22.38964081,-41.19064713
13.36392595,-46.66363144,-23.67698097,-14.19960785
13.37392595,-39.82973099,-22.51885414,22.37707901
13.38392595,-41.82055664,-28.19941521,23.55434799
13.39392595,-39.78665924,-33.37748337,21.3720932
13.40392595,-33.48396301,-36.36372757,10.69531918
13.41392595,-22.93640137,-37.59363556,-2.441277266
13.42392595,-22.93640137,-37.59363556,-2.441277266
13.43392595,-0.530010223,-34.20061493,-14.92224026
13.44392595,-0.530010223,-34.20061493,-14.92224026
13.45392595,-0.530010223,-34.20061493,-14.92224026
13.46392595,-0.530010223,-34.20061493,-14.92224026
13.47392595,-0.530010223,-34.20061493,-14.92224026
13.48392595,10.58704376,-10.93759251,11.1690979
13.49392595,7.466803074,-9.923035622,5.943173409
13.50392595,7.466803074,-9.923035622,5.943173409
13.51392595,7.466803074,-9.923035622,5.943173409
13.52392595,1.245464206,-9.530612946,3.287140131
13.53392595,1.872383714,-8.166703224,7.661220074
13.54392595,4.054637909,-7.128218651,10.3411808
13.55392595,6.547959328,-6.372086525,10.42732334
13.56392595,8.404789925,-5.022534847,9.058628082
13.57392595,9.696913719,-5.099104881,1.727019787
13.58392595,8.304290771,-5.946164131,-0.550947428
13.59392595,6.050251961,-6.917650223,-0.445663214
13.60392595,2.848655462,-7.453642368,2.607578516
13.61392595,-0.338584393,-7.24307394,8.144570351
13.62392595,-2.425125837,-7.448856831,14.23669624
13.63392595,-0.089730851,-10.12403297,22.602005
13.64392595,2.193022013,-11.04766178,21.6975174
13.65392595,3.212364435,-10.95673466,16.99801445
13.66392595,3.413361549,-10.23410225,11.8343029
13.67392595,3.829712629,-9.209974289,8.852845192
13.68392595,4.734199524,-8.74576664,8.838488579
13.69392595,5.992824078,-8.760123253,11.72901821
13.70392595,7.959724426,-11.82772255,17.16551208
13.71392595,7.959724426,-11.82772255,17.16551208
13.72392595,7.959724426,-11.82772255,17.16551208
13.73392595,7.677371502,-10.57388306,17.46700668
13.74392595,7.916653633,-9.631111145,16.8161602
13.75392595,8.907281876,-9.018548965,16.13181114
13.76392595,10.47697353,-9.994820595,15.8686018
13.77392595,10.6540432,-10.36810017,16.67737579
13.78392595,10.09412193,-10.07139015,16.50987816
13.79392595,9.926624298,-9.597611427,16.6534481
13.80392595,10.6540432,-9.712467194,16.73480415
13.81392595,11.55374432,-9.899106979,16.00738525
13.82392595,11.55374432,-9.899106979,16.00738525
13.83392595,11.55374432,-9.899106979,16.00738525
13.84392595,11.55374432,-9.899106979,16.00738525
13.85392595,11.55374432,-9.899106979,16.00738525
13.86392595,11.55852985,-12.10050392,14.60040569
13.87392595,12.36730385,-12.31585789,14.6769762
13.88392595,13.74078369,-12.28714466,14.45205021
13.89392595,13.74078369,-12.28714466,14.45205021
13.90392595,13.74078369,-12.28714466,14.45205021
13.91392595,16.2771759,-13.83769321,9.652048111
13.92392595,15.58325768,-13.11506081,10.64746284
13.93392595,15.65025616,-12.8757782,12.49950695
13.94392595,17.08116531,-13.64148235,13.98305702
13.95392595,17.08116531,-13.64148235,13.98305702
13.96392595,24.75255394,-18.18305969,14.41855145
13.97392595,27.54737091,-19.6139679,13.05942822
13.98392595,31.09353447,-21.95414734,11.56152058
13.99392595,35.33361435,-25.37588501,10.79581738
14.00392595,39.70291138,-29.83131981,10.14496994
14.01392595,43.30649948,-36.3302269,9.374481201
14.02392595,44.24927139,-62.41677856,10.93938732
14.03392595,37.58287048,-79.91788483,13.62413406
14.04392595,27.05923462,-97.2849884,17.44786453
14.05392595,15.30568981,-113.0824051,17.53400612
14.06392595,3.17407918,-123.2614746,14.02612782
14.07392595,-8.885746956,-125.8122253,10.57089233
14.08392595,-8.885746956,-125.8122253,10.57089233
14.09392595,-8.885746956,-125.8122253,10.57089233
14.10392595,-8.885746956,-125.8122253,10.57089233
14.11392595,-20.26601219,-72.27520752,11.18824005
14.12392595,-13.40339565,-66.74300385,3.808775425
14.13392595,-12.96311665,-60.16752625,-10.14138031
14.14392595,-16.75813293,-51.84050369,-24.1824646
14.15392595,-16.75813293,-51.84050369,-24.1824646
14.16392595,-16.75813293,-51.84050369,-24.1824646
14.17392595,-16.75813293,-51.84050369,-24.1824646
14.18392595,-36.42234802,-9.032905579,-35.55794144
14.19392595,-36.17349625,-6.778866768,-27.36013222
14.20392595,-31.80898857,-7.38664341,-17.09970856
14.21392595,-21.2087841,-12.58864021,-6.686144829
14.22392595,-17.06920052,-13.44527054,-4.336392879
14.23392595,-13.18325615,-15.30688667,-2.532204628
14.24392595,-9.598808289,-17.13500214,-0.35473597
14.25392595,-7.28255558,-17.35992813,3.315854073
14.26392595,-6.009573936,-16.17308807,7.321439266
14.27392595,-2.736192703,-13.07677555,11.05902767
14.28392595,-0.941575706,-11.91864967,10.17846966
14.29392595,-0.065802626,-10.43031406,8.139784813
14.30392595,-0.424726009,-8.822337151,5.73260498
14.31392595,-1.678565025,-7.410571575,3.86620307
14.32392595,-2.645265341,-6.879364967,2.708076954
14.33392595,-2.793620348,-6.903293133,2.416152716
14.34392595,-2.793620348,-6.903293133,2.416152716
14.35392595,-2.793620348,-6.903293133,2.416152716
14.36392595,-2.793620348,-6.903293133,2.416152716
14.37392595,-2.793620348,-6.903293133,2.416152716
14.38392595,3.035295486,-5.367101192,10.16889763
14.39392595,4.083351612,-5.659025669,8.37428093
14.40392595,4.083351612,-5.659025669,8.37428093
14.41392595,4.083351612,-5.659025669,8.37428093
14.42392595,3.791427374,-3.778266907,4.981258392
14.43392595,2.6620152,-3.395415306,7.71864748
14.44392595,2.384447813,-3.089133978,11.39880848
14.45392595,3.662214994,-3.026920557,14.03091335
14.46392595,5.318048477,-3.677768469,14.66740417
14.47392595,7.749155998,-3.538984776,12.08315659
14.48392595,7.734799385,-2.65364027,9.982257843
14.49392595,6.595815659,-2.103291035,9.034700394
14.50392595,6.533602238,-1.43808639,10.01097202
14.51392595,6.830312252,-1.940579176,11.12124157
14.52392595,7.203592777,-3.337987661,11.64287663
14.53392595,7.203592777,-3.337987661,11.64287663
14.54392595,9.783055305,-3.701696634,14.59083462
14.55392595,10.88853931,-3.984049797,13.71506119
14.56392595,11.54895878,-4.505684853,12.08315659
14.57392595,11.54895878,-4.505684853,12.08315659
14.58392595,11.33360481,-5.630311489,10.29332447
14.59392595,10.86461163,-6.319444656,10.58524895
14.60392595,10.86461163,-6.319444656,10.58524895
14.61392595,10.86461163,-6.319444656,10.58524895
14.62392595,8.151150703,-7.745566845,15.31825256
14.63392595,8.821140289,-8.161917686,15.91167259
14.64392595,9.95055294,-8.827122688,15.03111362
14.65392595,10.53440189,-9.745966911,12.84885979
14.66392595,10.12762165,-9.856036186,11.40838051
14.67392595,10.67318535,-10.60738277,11.76251793
14.68392595,10.67318535,-10.60738277,11.76251793
14.69392595,11.53938675,-14.33540058,11.98744297
14.70392595,11.53938675,-14.33540058,11.98744297
14.71392595,11.36231804,-15.55574036,13.38963699
14.72392595,11.36231804,-15.55574036,13.38963699
14.73392595,11.36231804,-15.55574036,13.38963699
14.74392595,13.79821205,-15.99601936,11.06381416
14.75392595,14.13799286,-15.40738487,10.29332447
14.76392595,14.56391525,-14.71346664,9.78126049
14.77392595,14.89891052,-14.18225956,9.45583725
14.78392595,15.47797298,-13.49312687,9.570692062
14.79392595,18.53121567,-13.49312687,8.326424599
14.80392595,21.14417648,-13.68933868,7.838288784
14.81392595,26.53759956,-13.78505135,8.40299511
14.82392595,35.1756897,-15.87637806,8.010572433
14.83392595,44.82355118,-21.00658989,6.70887661
14.84392595,48.75735092,-26.46222496,3.713062525
14.85392595,48.75735092,-26.46222496,3.713062525
14.86392595,48.75735092,-26.46222496,3.713062525
14.87392595,31.00739288,-65.52745056,21.77408791
14.88392595,24.21177673,-79.01818085,23.50649071
14.89392595,22.33580208,-94.84909821,17.50050735
14.90392595,15.97089481,-109.603241,6.077171326
14.91392595,8.165507317,-130.9520111,0.434895515
14.92392595,-23.50589371,-113.0249786,7.512865067
14.93392595,-29.46880722,-94.27481842,11.10209846
14.94392595,-22.24726868,-81.8608551,7.503293514
14.95392595,-12.75733376,-74.63932037,-0.852443039
14.96392595,-9.239884377,-68.32704926,-10.4093771
14.97392595,-12.57069397,-64.15396881,-21.89014053
14.98392595,-36.01557159,-48.93083191,-43.73182297
14.99392595,-51.14299393,-29.18047142,-41.97070694
15.00392595,-51.14299393,-29.18047142,-41.97070694
15.01392595,-51.14299393,-29.18047142,-41.97070694
15.02392595,-44.67280197,-11.83250809,5.301896572
15.03392595,-38.0255394,-11.60279655,17.57229042
15.04392595,-33.92424393,-13.91904926,21.21416664
15.05392595,-33.92424393,-13.91904926,21.21416664
15.06392595,-33.92424393,-13.91904926,21.21416664
15.07392595,-33.92424393,-13.91904926,21.21416664
15.08392595,-3.056830883,-18.57548141,-5.226522923
15.09392595,2.561516523,-17.40299988,-1.307079315
15.10392595,6.380461693,-16.20658684,3.488137245
15.11392595,6.380461693,-16.20658684,3.488137245
15.12392595,6.380461693,-16.20658684,3.488137245
15.13392595,6.380461693,-16.20658684,3.488137245
15.14392595,6.055037498,-7.91306448,6.081956863
15.15392595,3.647858143,-6.845865726,4.263411522
15.16392595,0.987039328,-5.678168297,3.626920938
15.17392595,-1.066002488,-4.017549038,4.560121536
15.18392595,-2.46819663,-2.677568436,6.976872444
15.19392595,-1.759921074,-3.036491871,7.584649563
15.20392595,-0.233300209,-3.007778168,8.197212219
15.21392595,1.690529227,-2.471785784,7.91007328
15.22392595,3.36550498,-1.935793519,7.187440872
15.23392595,4.542773724,-1.548156261,6.129813194
15.24392595,4.542773724,-1.548156261,6.129813194
15.25392595,4.542773724,-1.548156261,6.129813194
15.26392595,4.542773724,-1.548156261,6.129813194
15.27392595,2.173879385,0.342173636,4.536193371
15.28392595,1.819741607,0.265603304,6.981658459
15.29392595,1.968096614,-0.227318153,9.259625435
15.30392595,1.968096614,-0.227318153,9.259625435
15.31392595,1.968096614,-0.227318153,9.259625435
15.32392595,2.154736757,-2.151147604,12.78186035
15.33392595,1.78145647,-2.213361025,13.59063435
15.34392595,1.164108157,-2.041077614,14.52383518
15.35392595,0.369691104,-2.179861546,15.69153309
15.36392595,0.762113988,-2.46221447,17.73021698
15.37392595,5.093122959,-4.33340168,19.14676857
15.37392595,5.093122959,-4.33340168,19.14676857
15.39392595,7.213163853,-6.257231236,18.95534325
15.40392595,6.476174355,-6.262016773,20.28096581
15.41392595,5.418546677,-5.611168861,22.28615189
15.42392595,5.432903767,-5.615954876,23.17149544
15.43392595,8.495717049,-6.577869415,20.65424728
15.44392595,9.424132347,-6.534798622,18.01735687
15.45392595,9.835697174,-6.620940208,15.72024632
15.46392595,9.582057953,-6.74536705,14.29891014
15.47392595,9.582057953,-6.74536705,14.29891014
15.48392595,8.433503151,-7.79820919,14.6578331
15.49392595,7.864011765,-8.405985832,15.53839207
15.50392595,7.529016495,-9.262616158,16.73958969
15.51392595,8.309076309,-9.406186104,16.40937996
15.52392595,9.117850304,-9.253045082,15.22732544
15.53392595,9.897911072,-8.511270523,13.88255882
15.54392595,10.78804111,-7.683353424,12.90150166
15.55392595,11.66860008,-7.166503906,11.93001556
15.56392595,11.66860008,-7.166503906,11.93001556
15.57392595,14.73619843,-6.577869415,10.7862463
15.58392595,15.37268925,-7.032505512,11.13559818
15.59392595,15.25783348,-7.362715244,12.31286716
15.60392595,14.87498188,-8.023134232,13.51884937
15.61392595,14.44905949,-8.362915039,15.15075493
15.62392595,14.56391525,-8.109275818,16.99322891
15.63392595,18.39243126,-8.023134232,16.23709679
15.64392595,21.61795616,-7.826922894,13.911273
15.65392595,25.62832642,-8.032705307,11.20259762
15.66392595,30.39004326,-9.69811058,8.656634331
15.67392595,35.51068497,-12.82792187,7.579864025
15.68392595,39.93740463,-17.79063606,8.388637543
15.69392595,39.93740463,-17.79063606,8.388637543
15.70392595,39.93740463,-17.79063606,8.388637543
15.71392595,41.31567383,-44.52803802,16.71087456
15.72392595,38.02314758,-55.55416489,15.73938942
15.73392595,33.80220795,-69.53303528,15.40917969
15.74392595,28.1742897,-85.56494141,15.57189178
15.75392595,13.22871971,-103.8843918,22.57328987
15.76392595,13.22871971,-103.8843918,22.57328987
15.77392595,4.399204254,-103.4249725,20.34796524
15.78392595,9.060422897,-103.233551,15.53839207
15.79392595,11.89352512,-104.4060287,10.57567787
15.80392595,8.840283394,-103.2431183,5.00040102
15.81392595,5.160121918,-103.7025375,-1.512862086
15.82392595,5.160121918,-103.7025375,-1.512862086
15.83392595,-28.58346367,-82.14321136,-38.48675919
15.84392595,-40.21258163,-62.21099472,-47.00041962
15.85392595,-40.21258163,-62.21099472,-47.00041962
15.86392595,-56.32584763,-23.36112785,-40.67379761
15.87392595,-56.50770187,-14.92882061,-24.31646156
15.88392595,-56.50770187,-14.92882061,-24.31646156
15.89392595,-46.85505676,-22.92563438,-7.121638298
15.90392595,-38.15953827,-28.96033287,-4.738387108
15.91392595,-26.23371124,-33.13820267,-3.642474174
15.92392595,-14.01117325,-34.24847031,-2.881556749
15.93392595,-4.348955154,-32.57349396,-0.35473597
15.94392595,2.015953064,-29.39582634,2.569293261
15.95392595,8.682356834,-21.93500519,6.756732941
15.96392595,8.682356834,-21.93500519,6.756732941
15.97392595,10.49611664,-15.05324745,6.622735023
15.98392595,9.146564484,-12.00000572,5.14397049
15.99392595,6.887740135,-9.707681656,3.617349625
16.00392595,4.29392004,-8.669196129,2.219941139
16.01392595,0.685543716,-7.238288403,3.842274904
16.02392595,0.518046081,-6.836294174,5.086542606
16.03392595,0.661615431,-7.147361279,5.895316601
16.04392595,1.441675663,-7.4010005,7.551149845
16.05392595,3.322434187,-7.013363361,9.082556725
16.06392595,5.188836098,-6.357729912,9.029914856
16.07392595,6.356533527,-5.338387489,7.876574039
16.08392595,6.356533527,-5.338387489,7.876574039
16.09392595,6.356533527,-5.338387489,7.876574039
16.10392595,6.356533527,-5.338387489,7.876574039
16.11392595,7.098308563,-3.237488985,4.397409916
16.12392595,6.074180126,-3.409772158,7.0151577
16.13392595,4.777270317,-3.443271875,10.39382362
16.14392595,4.777270317,-3.443271875,10.39382362
16.15392595,4.777270317,-3.443271875,10.39382362
16.16392595,5.303691387,-4.185046673,16.09352684
16.17392595,5.303691387,-4.185046673,16.09352684
16.18392595,5.303691387,-4.185046673,16.09352684
16.19392595,8.165507317,-4.716253281,14.66740417
16.20392595,8.165507317,-4.716253281,14.66740417
16.21392595,8.165507317,-4.716253281,14.66740417
16.22392595,8.165507317,-4.716253281,14.66740417
16.23392595,7.907082558,-3.251846075,17.2420826
16.24392595,8.122436523,-4.003192425,16.2897377
16.25392595,8.763712883,-5.01774931,16.16052628
16.26392595,8.687142372,-5.558526993,16.50030708
16.27392595,8.524430275,-5.754738331,17.70628929
16.28392595,8.524430275,-5.754738331,17.70628929
16.29392595,8.797212601,-4.285545349,18.07478333
16.30392595,9.23270607,-4.094119549,16.48116493
16.31392595,9.419346809,-3.811766386,14.70090389
16.32392595,9.227920532,-3.132204771,13.59541988
16.33392595,8.323433876,-2.816352367,13.10728455
16.34392595,7.916653633,-3.6299119,13.43270779
16.35392595,7.524230957,-4.467400074,14.14576912
16.36392595,7.524230957,-4.467400074,14.14576912
16.37392595,7.241877556,-5.103890896,16.4524498
16.38392595,7.69651413,-5.347958565,16.78265953
16.39392595,8.682356834,-5.438885689,16.050457
16.40392595,8.682356834,-5.438885689,16.050457
16.41392595,8.682356834,-5.438885689,16.050457
16.42392595,8.682356834,-5.438885689,16.050457
16.43392595,11.43888855,-7.73599577,14.04527092
16.44392595,11.26181984,-8.090133667,15.66281891
16.45392595,11.59681511,-8.583054543,16.45723534
16.46392595,11.59681511,-8.583054543,16.45723534
16.47392595,17.91386604,-10.70788097,13.04985619
16.48392595,20.57468605,-10.93280697,11.8343029
16.49392595,23.32164574,-10.83709335,11.07338524
16.50392595,26.84388161,-10.9615202,10.19282627
16.51392595,31.24188805,-11.63629627,10.85324574
16.52392595,36.48695755,-12.8374939,11.48016453
16.53392595,36.48695755,-12.8374939,11.48016453
16.53392595,46.7473793,-17.55613899,11.92044449
16.55392595,48.27400208,-26.87379074,12.76750374
16.56392595,44.67041016,-34.70310593,13.92562962
16.57392595,39.09034729,-45.31766891,17.46222115
16.58392595,32.90729523,-57.19085312,23.67398834
16.59392595,23.99163628,-81.71728516,29.35454941
16.60392595,20.73261261,-95.86843872,23.49691963
16.61392595,11.85523987,-105.7125092,15.25603867
16.62392595,-3.114258766,-102.6975555,13.61456299
16.63392595,-17.29412651,-94.09296417,18.69691849
16.64392595,-25.81257439,-85.6893692,20.65424728
16.65392595,-31.30649567,-77.14221191,15.0406847
16.66392595,-31.30649567,-77.14221191,15.0406847
16.67392595,-48.82195663,-61.74678802,-25.83829689
16.68392595,-64.1886673,-49.01218796,-36.83570862
16.69392595,-73.87002563,-34.41596985,-34.70609665
16.70392595,-71.56334686,-28.64926529,-17.4059906
16.71392595,-63.59524536,-26.48615456,7.441080093
16.72392595,-51.50191879,-27.04607391,23.59741783
16.73392595,-45.88835526,-31.0229454,11.1690979
16.74392595,-37.546978,-31.74557877,-4.881956577
16.75392595,-24.72623253,-31.35794067,-17.09013748
16.76392595,-9.527023315,-30.04667473,-22.49791718
16.77392595,3.212364435,-26.86421967,-20.88515472
16.78392595,3.212364435,-26.86421967,-20.88515472
16.79392595,3.212364435,-26.86421967,-20.88515472
16.80392595,3.212364435,-26.86421967,-20.88515472
16.81392595,3.212364435,-26.86421967,-20.88515472
16.82392595,12.35773277,-4.118047714,12.17886925
16.83392595,12.35773277,-4.118047714,12.17886925
16.83392595,12.09930801,-3.443271875,6.522236347
16.85392595,12.09930801,-3.443271875,6.522236347
16.86392595,12.09930801,-3.443271875,6.522236347
16.87392595,1.475175142,-0.337387979,-3.891327858
16.88392595,-0.199800685,0.44745782,-0.943370342
16.89392595,-0.290727943,0.184247345,3.579064369
16.90392595,1.326820135,-0.662811875,8.316853523
16.91392595,5.002195835,-2.471785784,13.19821167
16.92392595,5.930611134,-2.754138947,13.10728455
16.93392595,6.490531445,-2.323430777,11.9348011
16.94392595,6.782455921,-1.476371527,10.44646549
16.95392595,7.610372543,-0.988235772,9.154341698
16.96392595,8.605786324,-0.887737215,8.149355888
16.97392595,9.491130829,-0.983450115,8.149355888
16.98392595,10.01755238,-1.237089276,8.651848793
16.99392595,9.940981865,-1.47158587,9.728618622
17.00392595,9.524630547,-1.433300734,11.3892374
17.01392595,8.931210518,-1.610369682,12.50429249
17.02392595,8.510073662,-2.289931297,13.21256828
17.03392595,7.974081516,-3.314059258,14.13619804
17.04392595,5.763113499,-5.72123909,15.25603867
17.05392595,5.763113499,-5.72123909,15.25603867
17.06392595,5.763113499,-5.72123909,15.25603867
17.07392595,5.763113499,-5.72123909,15.25603867
17.08392595,3.600001574,-6.075376511,20.59681892
17.09392595,5.375475883,-6.577869415,19.2759819
17.10392595,7.117451191,-7.070790768,17.60579109
17.11392595,7.117451191,-7.070790768,17.60579109
17.12392595,7.117451191,-7.070790768,17.60579109
17.13392595,9.902696609,-7.601997375,15.18425465
17.14392595,10.53918743,-8.425128937,15.27518177
17.15392595,10.96032429,-9.597611427,15.07896996
17.16392595,11.11346436,-10.42074299,15.19861126
17.17392595,10.89811039,-10.48774147,15.97388554
17.18392595,11.06082249,-10.48774147,15.85424423
17.19392595,11.46281719,-10.54995537,15.10768414
17.20392595,12.14237881,-10.53081226,14.02612782
17.21392595,12.95593834,-11.02851963,12.27458191
17.22392595,13.96570969,-11.78943729,10.87717342
17.23392595,15.87039661,-12.70828152,10.44167995
17.24392595,17.05245018,-12.63171101,11.16431236
17.25392595,18.30150414,-12.35414314,11.62373447
17.26392595,19.55534363,-11.80857944,11.86780167
17.27392595,20.98625183,-11.62193966,11.2887392
17.28392595,22.42673111,-12.03829098,9.752547264
17.29392595,23.93899345,-12.46899891,8.47956562
17.30392595,23.93899345,-12.46899891,8.47956562
17.31392595,23.93899345,-12.46899891,8.47956562
17.32392595,23.93899345,-12.46899891,8.47956562
17.33392595,23.93899345,-12.46899891,8.47956562
17.34392595,42.67958069,-39.60360718,8.029714584
17.35392595,41.09074783,-51.63950729,6.637091637
17.36392595,41.09074783,-51.63950729,6.637091637
17.37392595,22.16351891,-89.69974518,10.85803127
17.38392595,15.5114727,-103.7503967,13.81077385
17.39392595,5.380261898,-105.7555847,13.66241932
17.40392595,-4.971088886,-104.8128128,9.202198029
17.41392595,-14.1499567,-98.69197083,3.660420418
17.42392595,-20.26122665,-90.97272491,-2.527418852
17.43392595,-20.26122665,-90.97272491,-2.527418852
17.44392595,-43.27539444,-51.80221558,-17.4059906
17.45392595,-43.27539444,-51.80221558,-17.4059906
17.46392595,-43.27539444,-51.80221558,-17.4059906
17.47392595,-51.42534637,-28.27598572,-25.68515587
17.48392595,-50.74100113,-20.9826622,-18.21476364
17.49392595,-50.74100113,-20.9826622,-18.21476364
17.50392595,-46.14678192,-11.23908806,9.532406807
17.51392595,-41.89712906,-14.84746456,12.65743351
17.52392595,-36.07299805,-20.8199501,10.7862463
17.53392595,-28.21018219,-24.9738903,4.990829945
17.54392595,-18.53839302,-26.33301353,0.339182615
17.55392595,-7.277770042,-25.28974342,-4.197608948
17.56392595,9.649057388,-19.53739738,-4.953741074
17.57392595,12.94158173,-15.85245037,-2.091925144
17.58392595,13.1712923,-12.17228889,1.693520188
17.59392595,13.1712923,-12.17228889,1.693520188
17.60392595,9.993623734,-6.88893652,7.283154011
17.61392595,7.931010723,-5.697310925,8.09671402
17.62392595,7.931010723,-5.697310925,8.09671402
17.63392595,7.931010723,-5.697310925,8.09671402
17.64392595,7.931010723,-5.697310925,8.09671402
17.65392595,2.51844573,-1.203589797,3.88056016
17.66392595,2.733799934,-0.748953462,5.67039156
17.67392595,3.954139471,-0.533599436,7.441080093
17.68392595,3.954139471,-0.533599436,7.441080093
17.69392595,3.954139471,-0.533599436,7.441080093
17.70392595,8.868997574,-0.39960137,3.914059639
17.71392595,8.868997574,-0.39960137,3.914059639
17.72392595,7.433303356,2.175075769,3.263211966
17.73392595,6.19382143,3.304488182,4.871188641
17.74392595,5.327619553,3.955335855,7.608577728
17.75392595,5.916254044,3.414557934,11.89651585
17.76392595,7.098308563,3.050848961,12.3607235
17.77392595,7.978867054,3.151347399,12.15972614
17.78392595,7.907082558,3.491128206,11.41795158
17.79392595,6.792026997,3.8213377,10.16411209
17.80392595,5.389832973,4.060619831,9.771689415
17.81392595,2.886940479,4.036691666,10.1832552
17.82392595,1.81495595,3.979264021,10.83410263
17.83392595,1.81495595,3.979264021,10.83410263
17.84392595,0.077766739,4.764110088,12.29372501
17.85392595,-0.4869394,5.362315655,12.66221905
17.86392595,-0.290727943,5.553741455,12.06401348
17.87392595,0.072981089,5.213960648,11.25045395
17.88392595,0.776470959,4.189832687,10.99202919
17.89392595,0.786042213,3.424129248,11.63809109
17.90392595,0.451047063,2.773281336,12.61436272
17.91392595,-0.032303106,2.457428932,13.78206062
17.92392595,-0.24765715,2.246860504,14.29891014
17.93392595,0.26440689,1.792224169,13.60020542
17.94392595,0.26440689,1.792224169,13.60020542
17.95392595,0.26440689,1.792224169,13.60020542
17.96392595,0.26440689,1.792224169,13.60020542
17.97392595,1.800599098,-4.146761417,11.10209846
17.98392595,1.71924305,-4.907679081,12.48515034
17.99392595,2.839084148,-5.783452511,13.49970722
18.00392595,4.97826767,-6.970292568,13.7916317
18.01392595,9.347561836,-8.831908226,12.40857983
18.01392595,4.97826767,-6.970292568,13.7916317
18.03392595,11.35274696,-9.602396965,10.54696369
18.04392595,11.41017437,-10.13360405,10.60917759
18.05392595,11.18524933,-10.9184494,12.00180054
18.06392595,11.63031483,-12.37328625,13.93998623
18.07392595,14.20499134,-16.23051643,16.93580055
18.08392595,16.85145378,-17.60878181,17.14636803
18.09392595,20.05305099,-18.27398682,16.84008789
18.10392595,20.05305099,-18.27398682,16.84008789
18.11392595,26.47060013,-17.09671783,14.61954784
18.12392595,29.37548637,-15.51266956,11.997015
18.13392595,29.37548637,-15.51266956,11.997015
18.14392595,29.37548637,-15.51266956,11.997015
18.15392595,29.37548637,-15.51266956,11.997015
18.16392595,29.37548637,-15.51266956,11.997015
18.17392595,49.24069977,-18.48455429,9.135198593
18.18392595,50.78646469,-23.44726944,11.5519495
18.19392595,49.11148834,-30.97509003,13.58106327
18.20392595,49.11148834,-30.97509003,13.58106327
18.21392595,33.57728195,-75.4863739,22.04208374
18.22392595,24.35055923,-90.029953,24.42054939
18.23392595,13.07557964,-99.96973419,26.30130768
18.24392595,1.824527264,-105.0999527,26.88994217
18.25392595,-7.014559746,-106.2485046,25.17668152
18.26392595,-7.014559746,-106.2485046,25.17668152
18.27392595,-20.71107674,-93.98767853,11.09252739
18.28392595,-26.89413071,-86.69435883,2.942573547
18.29392595,-37.89632797,-77.95098114,-7.006783009
18.30392595,-51.21956635,-59.24389648,-15.43908978
18.31392595,-56.88098526,-40.06303024,-22.40699005
18.32392595,-52.36333466,-30.40559769,-24.40738869
18.33392595,-45.85964203,-12.98106289,-14.93659687
18.34392595,-44.27080917,-8.611768723,-10.53858948
18.35392595,-44.27080917,-8.611768723,-10.53858948
18.36392595,-44.27080917,-8.611768723,-10.53858948
18.37392595,-44.27080917,-8.611768723,-10.53858948
18.38392595,-26.6931324,-14.48854065,-1.6181463
18.39392595,-26.6931324,-14.48854065,-1.6181463
18.40392595,-26.6931324,-14.48854065,-1.6181463
18.41392595,1.738385677,-14.65603828,4.31126833
18.42392595,2.082952023,-11.50229836,6.622735023
18.43392595,1.178465128,-8.20498848,7.675576687
18.44392595,0.518046081,-5.754738331,7.728219032
18.45392595,0.594616413,-4.481756687,6.665805817
18.46392595,0.594616413,-4.481756687,6.665805817
18.47392595,0.594616413,-4.481756687,6.665805817
18.48392595,-2.281556368,-2.079362869,2.416152716
18.49392595,-3.286541939,-0.667597532,3.574278831
18.50392595,-3.449253798,0.437886536,5.431109428
18.51392595,-2.310270309,0.906879783,6.766304016
18.52392595,-2.310270309,0.906879783,6.766304016
18.53392595,-2.310270309,0.906879783,6.766304016
18.54392595,3.834498405,1.610369682,4.095914364
18.55392595,4.10249424,1.983649969,2.607578516
18.56392595,3.57128787,2.342573404,1.602592945
18.57392595,2.221735716,2.754138947,1.540379524
18.58392595,0.45583272,3.089133978,2.554936409
18.59392595,0.45583272,3.089133978,2.554936409
18.60392595,-2.889333248,2.146361828,8.685347557
18.61392595,-3.085544825,1.825723648,11.00160027
18.62392595,-3.085544825,1.624726534,12.95414352
18.63392595,-2.755335331,1.567298889,14.48076439
18.64392595,-1.956132531,1.337587833,15.21296787
18.65392595,0.183050931,-0.404387027,14.47119331
18.66392595,1.657029629,-0.921236694,13.86820221
18.67392595,3.327219963,-0.859023333,13.87777328
18.68392595,3.327219963,-0.859023333,13.87777328
18.69392595,4.930410862,-1.29451704,14.20798302
18.70392595,4.619344234,-2.352144718,15.0598278
18.71392595,3.839283943,-4.505684853,17.94078636
18.72392595,3.934996843,-5.103890896,18.71606064
18.73392595,4.179064751,-5.539384365,18.37627983
18.74392595,4.959125042,-5.635097504,18.06999779
18.75392595,5.720042706,-6.032305717,16.86880112
18.76392595,5.978467464,-7.238288403,15.39003658
18.77392595,6.150750637,-8.46819973,14.86840153
18.78392595,6.150750637,-8.46819973,14.86840153
18.79392595,6.150750637,-8.46819973,14.86840153
18.80392595,6.150750637,-8.46819973,14.86840153
18.81392595,7.337590694,-12.4546423,14.36590862
18.82392595,7.490731239,-12.6747818,13.13121223
18.83392595,7.883154392,-12.9954195,11.78644657
18.84392595,9.376275063,-13.31127262,9.695118904
18.85392595,9.869196892,-12.95234871,9.293125153
18.86392595,10.40518951,-12.38764286,9.336195946
18.87392595,10.61575794,-12.09093285,9.149555206
18.88392595,10.4913311,-11.83250809,8.871988297
18.89392595,10.27597713,-11.75115204,8.824131966
18.90392595,9.864411354,-11.81815147,9.020342827
18.91392595,9.448060036,-11.76072311,9.307481766
18.92392595,9.53898716,-11.53101254,9.714262009
18.93392595,10.42433167,-11.38265705,9.924830437
18.94392595,11.48674488,-11.32044411,9.206983566
18.95392595,12.61137199,-10.60738277,8.522636414
18.96392595,14.07099342,-10.01396275,7.512865067
18.97392595,14.07099342,-10.01396275,7.512865067
18.98392595,14.07099342,-10.01396275,7.512865067
18.99392595,19.62234116,-8.970691681,6.780661106
19.00392595,22.24008942,-9.597611427,7.264011383
19.01392595,25.19761848,-10.5355978,8.144570351
19.02392595,28.58106995,-12.22493076,8.704490662
19.03392595,31.49074173,-14.51725483,9.364909172
19.04392595,34.59183884,-21.59522438,11.1690979
19.05392595,35.65425491,-28.53441048,12.99242878
19.06392595,36.41517258,-39.46003723,14.05005646
19.07392595,36.31945801,-54.13282776,15.34218025
19.08392595,34.68276596,-70.705513,17.59622002
19.09392595,31.54338455,-86.98149872,18.96969986
19.10392595,19.93819427,-112.6086273,17.37129402
19.11392595,14.6261282,-120.6772232,13.78206062
19.12392595,10.68275642,-122.112915,12.19322586
19.13392595,10.68275642,-122.112915,12.19322586
19.14392595,7.016952515,-121.557785,4.722833633
19.15392595,3.212364435,-107.9091263,4.316053867
19.16392595,3.212364435,-107.9091263,4.316053867
19.17392595,3.212364435,-107.9091263,4.316053867
19.18392595,3.212364435,-107.9091263,4.316053867
19.19392595,3.212364435,-107.9091263,4.316053867
19.20392595,-10.46500969,-56.12844086,-13.1898365
19.21392595,-12.09212875,-54.84588623,-14.01296806
19.22392595,-15.8440752,-53.30490875,-14.64467239
19.23392595,-15.8440752,-53.30490875,-14.64467239
19.24392595,-42.15555191,-32.12364578,-17.75055695
19.25392595,-48.66403198,-28.20898628,-12.99362469
19.26392595,-53.20560837,-24.11247444,-4.91067028
19.27392595,-51.36791992,-23.16970253,8.37428093
19.28392595,-42.98825455,-27.71127892,19.52962112
19.29392595,-27.35355186,-34.46860886,20.62553215
19.30392595,-27.35355186,-34.46860886,20.62553215
19.31392595,-13.25025558,-33.75076294,6.249454498
19.32392595,-7.258627415,-31.19044304,-0.81894356
19.33392595,-2.463410854,-27.84527779,-5.815157413
19.34392595,0.896112084,-24.3708992,-8.097909927
19.35392595,3.279363394,-20.92523384,-8.231907845
19.36392595,5.069194794,-15.69930935,-3.910470486
19.37392595,5.069194794,-15.69930935,-3.910470486
19.38392595,5.179264545,-11.17208862,4.28255415
19.39392595,5.389832973,-9.765109062,7.249654293
19.40392595,5.542973518,-9.075976372,8.637491226
19.41392595,5.609972477,-8.496912956,8.790632248
19.42392595,5.609972477,-8.496912956,8.790632248
19.43392595,5.609972477,-8.496912956,8.790632248
19.44392595,1.379462242,-5.410171986,6.383452415
19.45392595,1.676172256,-6.017949104,6.369095802
19.46392595,2.566302299,-6.75972414,6.531807423
19.47392595,3.968496323,-7.635497093,6.474380016
19.48392595,3.968496323,-7.635497093,6.474380016
19.49392595,3.968496323,-7.635497093,6.474380016
19.50392595,7.24666357,-7.697710514,12.97328663
19.51392595,7.935796261,-7.975277901,12.95414352
19.52392595,8.845068932,-8.200202942,11.997015
19.53392595,9.59641552,-8.324629784,10.51346493
19.54392595,10.33819008,-7.889136314,9.116056442
19.55392595,11.30967617,-7.166503906,10.25982571
19.56392595,11.34317589,-7.692924976,12.09272766
19.57392595,11.63510036,-8.20498848,13.57627773
19.58392595,12.45344543,-8.43948555,13.55713463
19.59392595,13.39143181,-8.630910873,12.38465214
19.60392595,14.13799286,-8.64526844,11.27916813
19.61392595,14.13799286,-8.64526844,11.27916813
19.62392595,14.13799286,-8.64526844,11.27916813
19.63392595,14.13799286,-8.64526844,11.27916813
19.64392595,14.13799286,-8.64526844,11.27916813
19.65392595,11.7403841,-7.133004189,11.40838051
19.66392595,11.43410301,-6.893722057,10.53739262
19.67392595,11.37189007,-6.93679285,9.915258408
19.68392595,10.43868923,-6.826723099,9.666405678
19.69392595,9.605986595,-6.510870457,10.32682419
19.70392595,8.778069496,-6.281159401,11.03988552
19.71392595,8.261219978,-5.998806477,11.48016453
19.72392595,8.222934723,-5.812166214,11.49930763
19.73392595,8.342576027,-5.429314613,11.19302654
19.74392595,8.988637924,-4.515256405,9.565906525
19.75392595,9.113064766,-4.543970108,8.264211655
19.76392595,9.184849739,-4.692325115,7.010372162
19.77392595,8.35693264,-4.381258488,6.498308182
19.78392595,7.342376232,-4.094119549,7.115656376
19.79392595,6.710670948,-4.055834293,8.350353241
19.80392595,6.634100914,-4.400400639,9.403194427
19.81392595,7.476374149,-5.927021503,9.70468998
19.82392595,7.476374149,-5.927021503,9.70468998
19.83392595,7.476374149,-5.927021503,9.70468998
19.84392595,7.203592777,-7.262216568,8.489136696
19.85392595,7.103094101,-7.38664341,8.656634331
19.86392595,7.945367813,-7.458428383,9.139984131
19.87392595,7.945367813,-7.458428383,9.139984131
19.88392595,7.945367813,-7.458428383,9.139984131
19.89392595,7.945367813,-7.458428383,9.139984131
19.90392595,21.93859482,-9.611968994,4.205984116
19.91392595,24.29313278,-8.784051895,3.684348583
19.92392595,27.68615532,-7.975277901,2.760719061
19.93392595,32.51965714,-10.18624592,2.60279274
19.94392595,32.51965714,-10.18624592,2.60279274
19.95392595,45.79024887,-20.36052704,10.34596729
19.96392595,47.53701019,-28.03670311,12.81536007
19.97392595,46.8861618,-38.26841354,15.14596939
19.98392595,44.01477432,-50.01238632,17.77807426
19.99392595,39.42534256,-62.92405701,20.72603226
20.00392595,33.00300598,-87.46963501,28.55534744
20.01392595,32.92643738,-103.4776154,28.46920586
20.02392595,33.22793198,-116.3414307,28.86162758
20.03392595,33.83570862,-128.9037476,25.45424843
20.04392595,30.64368248,-139.0062408,17.25643921
20.05392595,25.59004211,-141.5857086,9.077771187
20.06392595,23.91506577,-142.8491211,2.205584288
20.07392595,23.91506577,-142.8491211,2.205584288
20.08392595,23.91506577,-142.8491211,2.205584288
20.09392595,-17.81576157,-111.3595734,-18.66940117
20.10392595,-34.02474213,-80.68358612,-19.54517365
20.11392595,-47.86004257,-47.72963333,-17.25284958
20.12392595,-46.55834579,-31.9513607,-14.18525124
20.13392595,-27.30569649,-32.04707336,-6.164509296
20.14392595,-27.02812767,-27.94099045,-5.480162144
20.15392595,-32.24448013,-23.78705025,-13.22812176
20.16392595,-39.1166687,-18.4606266,-21.59342957
20.17392595,-40.69593048,-15.23988724,-20.52623177
20.18392595,-34.80480194,-16.55594063,-8.011768341
20.19392595,-17.15055656,-24.82074928,15.01197147
20.20392595,-8.919246674,-28.161129,20.39582253
20.21392595,-4.095315933,-28.60619545,19.73061752
20.22392595,-2.544766903,-25.65823746,14.94497204
20.23392595,-2.334198475,-21.86322021,9.240483284
20.24392595,-1.573280931,-18.82912064,4.741976261
20.25392595,-0.017946171,-16.45065498,1.789233088
20.26392595,-0.017946171,-16.45065498,1.789233088
20.27392595,2.934797049,-10.02831936,-0.756730139
20.28392595,3.274577856,-8.889336586,-1.043868899
20.29392595,2.992224693,-7.831708431,-1.086939692
20.30392595,2.226521492,-6.496513367,0.042472601
20.31392595,1.269392371,-5.477170944,1.368096352
20.32392595,1.269392371,-5.477170944,1.368096352
20.33392595,-0.702293456,-3.08434844,5.579464436
20.34392595,-0.95114702,-2.490928411,6.110671043
20.35392595,-1.38185513,-3.050848961,6.019743443
20.36392595,-1.530210137,-3.811766386,5.105685234
20.37392595,-1.190429211,-3.046063185,4.124628067
20.38392595,-0.960718274,-2.251646042,4.507479668
20.39392595,-0.960718274,-2.251646042,4.507479668
20.40392595,-0.960718274,-2.251646042,4.507479668
20.41392595,-0.960718274,-2.251646042,4.507479668
20.42392595,-1.133001566,-3.888336897,15.44746494
20.43392595,0.116051897,-5.103890896,15.8686018
20.44392595,1.695314884,-5.860022545,14.86361599
20.45392595,1.695314884,-5.860022545,14.86361599
20.46392595,1.695314884,-5.860022545,14.86361599
20.47392595,5.528616905,-4.811966419,8.790632248
20.48392595,5.437689304,-5.525027275,8.876773834
20.49392595,5.437689304,-5.525027275,8.876773834
20.50392595,5.787041664,-6.932007313,13.66720486
20.51392595,7.122236729,-7.190432072,16.99322891
20.52392595,7.122236729,-7.190432072,16.99322891
20.53392595,12.27159119,-8.525627136,17.42872238
20.54392595,13.04207993,-8.77448082,14.60997677
20.55392595,13.1712923,-8.559126854,11.9348011
20.56392595,13.15693569,-8.372486115,9.96790123
20.57392595,13.24307728,-8.95154953,8.991629601
20.58392595,13.53978729,-9.942177773,11.19302654
20.59392595,13.99442291,-9.985248566,12.46600819
20.60392595,14.41077423,-10.04267693,12.55693531
20.61392595,14.61177158,-10.05703354,11.72423267
20.62392595,14.40120316,-9.808179855,9.800403595
20.63392595,13.91306686,-9.291330338,7.962715626
20.64392595,12.12802124,-8.611768723,6.134599209
20.65392595,11.11825085,-8.348558426,7.039085865
20.66392595,11.11825085,-8.348558426,7.039085865
20.67392595,11.11825085,-8.348558426,7.039085865
20.68392595,11.11825085,-8.348558426,7.039085865
20.69392595,11.11825085,-8.348558426,7.039085865
20.70392595,13.04686546,-12.41635704,12.95892906
20.71392595,16.19581985,-14.71346664,11.30788136
20.71392595,16.19581985,-14.71346664,11.30788136
20.73392595,22.54637146,-14.34018612,9.70468998
20.74392595,27.49472809,-14.07219028,7.393223763
20.75392595,33.14657593,-14.18225956,5.177470207
20.76392595,37.87479401,-14.29232979,3.052643538
20.77392595,37.87479401,-14.29232979,3.052643538
20.78392595,43.07678986,-23.40898323,1.77009058
20.79392595,41.92345047,-29.6159668,4.009772778
20.80392595,40.21018982,-37.77548981,7.201797962
20.81392595,0.034695927,-42.60899353,14.15055466
20.82392595,46.56552505,-63.08198166,13.07378483
20.83392595,34.59183884,-71.82535553,13.58584881
20.84392595,16.35374641,-83.26783752,21.37687874
20.85392595,11.67338562,-91.92506409,22.95135689
20.86392595,11.67338562,-91.92506409,22.95135689
20.87392595,8.395217896,-102.8028412,16.48595047
20.88392595,2.264806747,-104.9755249,11.17866898
20.89392595,-7.60319376,-99.40024567,8.838488579
20.90392595,-7.60319376,-99.40024567,8.838488579
20.91392595,-7.60319376,-99.40024567,8.838488579
20.92392595,-7.60319376,-99.40024567,8.838488579
20.93392595,-14.80080414,-55.43452072,10.47517967
20.94392595,-14.9778738,-53.30012512,3.253640652
20.95392595,-20.16551208,-48.94040298,-0.665802896
20.96392595,-27.36790848,-41.0488739,-0.302093863
20.97392595,-27.36790848,-41.0488739,-0.302093863
20.98392595,-38.81995773,-23.605196,2.401795626
20.99392595,-37.4225502,-19.48475456,7.019943237
21.00392595,-34.64687729,-17.0919323,11.19302654
21.01392595,-31.45963478,-16.87657738,12.80578899
21.02392595,-28.33460999,-16.76172256,14.24626827
21.03392595,-19.17967033,-17.07279015,16.28016663
21.04392595,-13.46560955,-18.47019768,15.51924992
21.05392595,-8.483752251,-19.39861298,12.53779221
21.06392595,-4.669593334,-19.07797432,8.431708336
21.07392595,-2.027917147,-17.6327095,4.354339123
21.08392595,-0.549152792,-15.52224064,0.870389223
21.09392595,-0.329013109,-10.98544884,-2.359921217
21.10392595,-1.195214868,-9.391828537,-2.699702263
21.11392595,-2.286342144,-8.090133667,-2.077568293
21.12392595,-3.195614576,-7.137789726,-0.708873689
21.13392595,-3.549752474,-6.649653912,1.411167145
21.14392595,-3.296113253,-6.56829834,3.727419376
21.15392595,-2.702693224,-6.209374905,5.780461311
21.16392595,-2.702693224,-6.209374905,5.780461311
21.17392595,-2.702693224,-6.209374905,5.780461311
21.18392595,0.072981089,-3.706482172,8.21635437
21.19392595,0.072981089,-3.706482172,8.21635437
21.20392595,-0.300299227,-2.23728919,6.895516872
21.21392595,-0.089730851,-1.811366796,6.804589272
21.22392595,-0.089730851,-1.811366796,6.804589272
21.23392595,1.422533035,-2.050648928,7.886145115
21.24392595,1.628315806,-1.993221283,9.32662487
21.25392595,2.279163599,-1.619940877,11.92523003
21.26392595,3.389433384,-1.428515077,14.21276855
21.27392595,4.614558697,-1.548156261,15.62931919
21.28392595,6.078966141,-1.524227977,16.26102448
21.29392595,8.701499939,-0.768096089,15.44746494
21.30392595,9.414560318,-0.418743968,14.53340626
21.31392595,9.314062119,-0.366101861,14.00220013
21.32392595,9.26142025,-1.040877819,13.76291752
21.33392595,9.653842926,-1.840080619,14.60519123
21.34392595,9.897911072,-2.639283419,14.94975758
21.35392595,9.897911072,-2.639283419,14.94975758
21.36392595,9.897911072,-2.639283419,14.94975758
21.37392595,10.8741827,-2.495713949,17.12722588
21.38392595,11.36710358,-2.629712105,16.22752571
21.39392595,11.56331539,-3.270988464,14.60519123
21.40392595,10.98425198,-3.634697676,13.1838541
21.41392595,9.826126099,-3.491128206,12.90150166
21.42392595,9.826126099,-3.491128206,12.90150166
21.43392595,7.974081516,-5.367101192,13.97348595
21.44392595,7.840083599,-6.257231236,14.2749815
21.45392595,7.505088329,-7.008577347,14.03091335
21.46392595,7.021738052,-7.362715244,14.11705494
21.47392595,6.940382004,-7.726424217,14.02134228
21.48392595,7.423732281,-8.755337715,13.71984673
21.49392595,8.155936241,-9.329615593,13.37049484
21.50392595,8.931210518,-9.731609344,12.72921848
21.51392595,9.318847656,-9.870393753,11.8151598
21.52392595,9.783055305,-10.19581699,11.18345451
21.53392595,10.03669453,-10.79402256,10.46560764
21.54392595,9.754341125,-12.30628681,9.70468998
21.55392595,9.381061554,-12.94756317,10.0779705
21.56392595,9.381061554,-13.5409832,11.14038372
21.57392595,10.02233791,-13.91426373,12.63350582
21.58392595,10.02233791,-13.91426373,12.63350582
21.59392595,10.02233791,-13.91426373,12.63350582
21.60392595,16.11924934,-13.97647667,12.84885979
21.61392595,22.28316116,-13.1581316,8.541778564
21.62392595,26.87259483,-13.65583897,7.197012424
21.63392595,31.73959541,-15.21117401,6.718447685
21.64392595,35.92703629,-17.11107445,7.005586624
21.65392595,37.98486328,-20.44666862,7.646862984
21.66392595,38.45864105,-26.63450813,9.494122505
21.67392595,33.93620682,-43.69533539,18.37627983
21.68392595,29.77269554,-56.52565002,20.55374908
21.69392595,24.11127663,-70.0259552,22.31486511
21.70392595,20.21576118,-83.03334045,24.20519638
21.71392595,16.74138451,-100.7210846,21.14716911
21.72392595,8.337790489,-110.7470093,20.02254105
21.73392595,1.20717907,-110.0770187,21.89372826
21.74392595,1.551745534,-112.7952652,12.77707481
21.75392595,1.551745534,-112.7952652,12.77707481
21.76392595,-4.822733879,-96.92127991,5.579464436
21.77392595,-3.798605919,-94.81559753,0.621535659
21.78392595,-6.181857109,-96.71071625,-11.06979561
21.79392595,-17.66740608,-81.40621948,-11.40479088
21.80392595,-17.66740608,-81.40621948,-11.40479088
21.81392595,-17.66740608,-81.40621948,-11.40479088
21.82392595,-44.20859528,-48.66762161,1.573879123
21.83392595,-57.97211075,-35.16252899,1.683948994
21.84392595,-63.375103,-27.64427948,-3.216551781
21.85392595,-61.40820313,-22.68635178,3.535993576
21.86392595,-51.59284592,-19.10190392,20.02254105
21.87392595,-51.59284592,-19.10190392,20.02254105
21.88392595,-17.29891205,-20.89173508,31.82394218
21.89392595,-10.4219389,-19.15454483,23.57827568
21.90392595,-3.889533281,-17.47478294,15.32782364
21.91392595,1.690529227,-16.18744469,8.876773834
21.92392595,5.064409256,-13.94297791,3.904488325
21.93392595,7.390232563,-6.252445698,-1.173081279
21.94392595,7.390232563,-6.252445698,-1.173081279
21.95392595,7.390232563,-6.252445698,-1.173081279
21.96392595,7.390232563,-6.252445698,-1.173081279
21.97392595,12.26202011,0.193818629,2.416152716
21.98392595,12.05623722,1.409372568,2.866003275
21.99392595,10.74497032,2.74935317,3.076571703
22.00392595,10.74497032,2.74935317,3.076571703
22.01392595,1.762313843,4.706682205,2.526222467
22.02392595,-0.477368116,5.079962254,3.090928555
22.03392595,-2.094916344,4.457828522,3.875774384
22.04392595,-3.047259569,3.328416348,4.995615482
22.05392595,-3.468396425,2.605783939,6.35952425
22.06392595,-3.262613773,1.916650891,8.876773834
22.07392595,-2.410768747,1.753939033,9.527621269
22.08392595,-1.544566989,1.117448211,9.747760773
22.09392595,-0.214157626,0.074177504,10.01097202
22.10392595,1.393819213,-0.849452019,10.59960651
22.11392595,2.752942562,-1.270588875,11.63809109
22.12392595,3.537788391,-0.610169768,11.60937691
22.13392595,3.887140274,-0.251246363,10.97288609
22.14392595,4.6432724,-0.093320087,10.03011417
22.15392595,5.624329567,-0.165104762,9.206983566
22.16392595,6.543173313,-0.729810894,8.47956562
22.17392595,7.05523777,-1.351944804,8.613563538
22.18392595,6.830312252,-1.763510346,9.29791069
22.19392595,4.997410297,-2.376072884,11.31745243
22.20392595,4.375276089,-2.78285265,12.17886925
22.21392595,4.375276089,-2.78285265,12.17886925
22.22392595,5.14097929,-3.567698479,13.97348595
22.23392595,6.495316982,-3.864408493,14.66261864
22.24392595,7.643871784,-4.089334011,14.31326675
22.25392595,7.643871784,-4.089334011,14.31326675
22.26392595,7.643871784,-4.089334011,14.31326675
22.27392595,6.442675114,-3.912265062,11.34616661
22.28392595,5.930611134,-3.964907169,11.53759289
22.29392595,5.801398277,-4.53918457,11.48495007
22.30392595,5.806184292,-5.347958565,11.81037426
22.31392595,6.275177479,-5.759523869,12.46122169
22.32392595,7.342376232,-6.783652306,12.27936745
22.33392595,7.950153351,-7.276573658,11.86301613
22.34392595,8.54357338,-8.080561638,11.03031445
22.35392595,8.725427628,-8.932407379,10.52782154
22.36392595,8.648857117,-9.305686951,10.26939678
22.37392595,8.615358353,-9.166903496,10.70967579
22.38392595,10.07019424,-9.568898201,11.51844978
22.39392595,11.73081303,-10.21974564,11.05902767
22.40392595,11.73081303,-10.21974564,11.05902767
22.41392595,15.20040607,-10.74616623,9.719047546
22.42392595,17.34437561,-10.02831936,9.42712307
22.43392595,20.16790581,-8.58784008,9.216554642
22.44392595,24.09213448,-7.209574699,8.714061737
22.45392595,33.75914001,-5.960521221,6.957729816
22.46392595,39.49712753,-7.046862602,6.249454498
22.47392595,45.0389061,-9.774680138,5.900102615
22.48392595,48.75735092,-14.45504189,4.421338081
22.49392595,50.02075958,-20.23610115,3.588635683
22.50392595,48.17828751,-28.11327362,3.928416491
22.51392595,48.17828751,-28.11327362,3.928416491
22.52392595,34.00320435,-67.45127869,26.50709152
22.53392595,30.15076256,-82.975914,31.77608681
22.54392595,25.13061905,-91.46086121,26.53101921
22.55392595,22.71865463,-118.6289673,13.54277802
22.56392595,11.05125141,-127.4824142,5.799603939
22.57392595,-17.5812645,-86.65128326,10.78146076
22.58392595,-9.981659889,-80.24809265,9.585049629
22.59392595,-3.73160696,-77.35756683,7.225726128
22.60392595,-0.702293456,-78.07062531,5.900102615
22.61392595,-3.31525588,-83.00940704,-1.785643935
22.62392595,-12.02513027,-87.01978302,-12.84048462
22.63392595,-31.50270653,-75.94580078,-18.7363987
22.64392595,-71.09913635,-28.33341217,-5.193023205
22.65392595,-68.10332489,-21.51386833,4.737190723
22.66392595,-60.59943008,-14.47896957,14.054842
22.67392595,-48.95116806,-10.63609695,23.82712936
22.68392595,-34.3980217,-12.31585789,29.81875801
22.69392595,-20.34736824,-15.26860142,32.9677124
22.70392595,-1.97527504,-17.0919323,30.19682312
22.71392595,-1.97527504,-17.0919323,30.19682312
22.72392595,-1.97527504,-17.0919323,30.19682312
22.73392595,3.28414917,-9.717252731,10.71446133
22.74392595,3.738785267,-7.515855789,6.125027657
22.75392595,3.944568157,-5.357530117,2.665006161
22.76392595,4.246063709,-3.026920557,0.334396958
22.77392595,4.246063709,-3.026920557,0.334396958
22.78392595,4.246063709,-3.026920557,0.334396958
22.79392595,3.226721287,2.294716835,-0.507876635
22.80392595,3.226721287,2.294716835,-0.507876635
22.81392595,0.948754191,2.514856577,2.119442701
22.82392595,-0.687936485,2.433500528,3.090928555
22.83392595,-0.687936485,2.433500528,3.090928555
22.84392595,-5.191228867,2.883351326,7.421937466
22.85392595,-6.019145489,2.639283419,8.355138779
22.86392595,-6.483353138,2.33300209,9.12084198
22.87392595,-6.459424496,1.988435626,9.570692062
22.88392595,-5.980860233,1.600798368,9.374481201
22.89392595,-5.363512039,1.265803218,8.627920151
22.90392595,-4.660022259,0.629312336,6.211169243
22.91392595,-4.459024906,0.614955425,5.325825214
22.92392595,-4.133601189,0.681954443,4.746761799
22.93392595,-3.870390654,0.600598454,4.138985157
22.94392595,-3.82731986,0.193818629,3.579064369
22.95392595,-3.884747505,-0.131605253,3.760919094
22.96392595,-3.616751432,-0.20817557,6.134599209
22.97392595,-3.066402197,-0.437886536,7.41236639
22.98392595,-2.382055044,-0.677168787,8.134998322
22.99392595,-1.46321106,-0.935593665,8.417351723
23.00392595,-0.53479588,-1.543370605,8.321639061
23.01392595,0.230907381,-2.251646042,8.240283012
23.02392595,0.230907381,-2.251646042,8.240283012
23.03392595,0.230907381,-2.251646042,8.240283012
23.04392595,0.230907381,-2.251646042,8.240283012
23.05392595,0.230907381,-2.251646042,8.240283012
23.06392595,2.039881229,-4.496113777,8.139784813
23.07392595,3.049652576,-5.525027275,6.69451952
23.08392595,4.408775806,-6.754938126,6.713662148
23.09392595,4.408775806,-6.754938126,6.713662148
23.10392595,4.408775806,-6.754938126,6.713662148
23.11392595,10.05105114,-9.688538551,10.71446133
23.12392595,10.46740246,-9.516255379,10.59003448
23.13392595,10.50090218,-9.583254814,10.25982571
23.14392595,10.472188,-9.812965393,10.1401844
23.15392595,11.10867882,-8.228917122,11.4514513
23.16392595,11.43888855,-10.47338486,10.2406826
23.17392595,12.25244808,-12.46421337,11.08774185
23.18392595,12.92243862,-12.84706497,11.93958664
23.19392595,12.86501122,-12.65563869,11.92523003
23.20392595,13.00379467,-12.18664551,11.56152058
23.21392595,14.11884975,-12.19621658,10.24546814
23.22392595,18.28714752,-12.10050392,9.63290596
23.23392595,18.28714752,-12.10050392,9.63290596
23.24392595,18.28714752,-12.10050392,9.63290596
23.25392595,23.69971275,-10.33938694,8.398209572
23.26392595,26.3413887,-9.209974289,7.618149281
23.27392595,30.62454033,-8.731410027,6.617949009
23.28392595,30.62454033,-8.731410027,6.617949009
23.29392595,30.62454033,-8.731410027,6.617949009
23.30392595,49.06363297,-15.57966805,2.803789854
23.31392595,49.36991501,-20.83430672,3.46420908
23.32392595,47.07759094,-29.07997322,4.804189682
23.33392595,42.85665131,-39.76153564,8.781061172
23.34392595,36.6065979,-50.83073044,16.61037636
23.35392595,26.92045021,-69.64310455,22.87957191
23.36392595,24.90090942,-79.64031982,17.73021698
23.37392595,24.00120735,-90.20702362,13.26999664
23.38392595,23.86721039,-107.1912766,8.268997192
23.39392595,14.83669662,-115.1785202,6.589235306
23.40392595,1.867598057,-112.0487061,10.02532864
23.41392595,-11.91984558,-93.86804199,7.92443037
23.42392595,-14.39402485,-78.86025238,6.192026615
23.43392595,-13.04447269,-69.80581665,2.679363251
23.44392595,-13.04447269,-69.80581665,2.679363251
23.45392595,-14.93001652,-60.23452377,-3.556332588
23.46392595,-18.87338829,-53.69254684,-3.312264681
23.47392595,-18.87338829,-53.69254684,-3.312264681
23.48392595,-18.87338829,-53.69254684,-3.312264681
23.49392595,-33.20639801,-21.41337013,8.053643227
23.50392595,-32.55554962,-18.03948975,12.68614769
23.51392595,-31.81855965,-15.82852173,16.31845284
23.52392595,-31.00021362,-12.77528,19.33340836
23.53392595,-29.27259636,-10.63131142,20.53460503
23.54392595,-21.17528343,-11.09551907,16.04088402
23.55392595,-17.38983917,-11.55015469,10.16889763
23.56392595,-12.41276741,-10.99023438,6.90030241
23.57392595,-7.301698208,-11.32044411,4.962115765
23.58392595,-3.339184046,-11.65543938,4.004986763
23.59392595,-1.094716311,-10.93280697,3.650849104
23.60392595,0.216550454,-7.922635555,4.048057556
23.61392595,0.498903513,-6.329015732,4.923830986
23.62392595,0.929611623,-5.108676434,6.402595043
23.63392595,1.250249863,-4.529613495,7.776075363
23.64392595,1.25503552,-4.113262177,8.962915421
23.65392595,0.795613527,-3.964907169,9.460622787
23.66392595,-0.190229401,-3.768695593,8.934201241
23.67392595,-1.98963201,-3.806980848,7.264011383
23.68392595,-1.98963201,-3.806980848,7.264011383
23.69392595,-1.98963201,-3.806980848,7.264011383
23.70392595,-1.98963201,-3.806980848,7.264011383
23.71392595,-4.114458561,-1.768295884,4.004986763
23.72392595,-4.119244099,-1.840080619,4.191627026
23.73392595,-4.119244099,-1.840080619,4.191627026
23.74392595,-4.119244099,-1.840080619,4.191627026
23.75392595,-1.075573802,-3.012563705,6.996015072
23.76392595,0.005982057,-2.691925526,8.240283012
23.77392595,0.484546572,-2.007578135,9.465408325
23.78392595,0.747757077,-1.466800332,10.42732334
23.79392595,1.25503552,-1.557727575,10.9058876
23.80392595,1.25503552,-1.557727575,10.9058876
23.81392595,2.863012314,-3.007778168,9.537193298
23.82392595,2.863012314,-3.007778168,9.537193298
23.83392595,5.054837704,-3.510270834,9.374481201
23.84392595,6.567101955,-3.687339783,10.25982571
23.85392595,7.897511005,-4.232903481,11.35573769
23.86392595,7.897511005,-4.232903481,11.35573769
23.87392595,7.897511005,-4.232903481,11.35573769
23.88392595,7.897511005,-4.232903481,11.35573769
23.89392595,7.241877556,-7.558926582,13.55713463
23.90392595,7.241877556,-7.558926582,13.55713463
23.91392595,5.84446907,-9.530612946,13.15992641
23.92392595,6.059823513,-10.66959572,12.71964741
23.93392595,6.059823513,-10.66959572,12.71964741
23.94392595,11.2378912,-13.57926846,11.24088287
23.95392595,13.52542973,-14.27318668,10.57567787
23.96392595,15.4109745,-14.77089405,9.948758125
23.97392595,16.2771759,-14.65125275,9.786046028
23.98392595,16.15275002,-14.09611797,9.996614456
23.99392595,14.4634161,-12.96670628,10.0205431
24.00392595,13.67378521,-12.75135231,9.738189697
24.01392595,12.98943806,-12.36850071,9.518050194
24.02392595,12.59222889,-12.10528946,9.331410408
24.03392595,12.63529968,-11.62193966,9.058628082
24.04392595,13.12343597,-11.33001518,8.149355888
24.05392595,14.97069454,-9.832108498,7.149155617
24.06392595,16.88495255,-9.205188751,5.737390518
24.07392595,16.88495255,-9.205188751,5.737390518
24.08392595,16.88495255,-9.205188751,5.737390518
24.09392595,24.83869553,-9.688538551,2.47358036
24.10392595,27.4085865,-9.808179855,2.243869543
24.11392595,30.22254562,-10.3154583,2.205584288
24.12392595,30.22254562,-10.3154583,2.205584288
24.13392595,30.22254562,-10.3154583,2.205584288
24.14392595,39.98526382,-17.22592926,6.311667919
24.15392595,40.75096512,-23.89711952,6.996015072
24.16392595,40.83232117,-35.11467361,7.3980093
24.17392595,40.63132477,-48.81597519,9.388837814
24.18392595,40.63132477,-48.81597519,9.388837814
24.19392595,29.34677315,-90.54201508,26.11945343
24.20392595,29.34677315,-90.54201508,26.11945343
24.21392595,29.34677315,-90.54201508,26.11945343
24.22392595,24.89612389,-111.2782135,15.06939888
24.23392595,23.4173584,-121.907135,5.287539959
24.24392595,14.71226978,-124.362175,-0.775872767
24.25392595,14.71226978,-124.362175,-0.775872767
24.26392595,-16.20778465,-94.423172,-6.41336298
24.27392595,-19.80180359,-83.51668549,-9.504889488
24.28392595,-21.77827454,-80.25287628,-15.40080452
24.29392595,-30.39243698,-81.77471161,-25.45066071
24.30392595,-55.09115219,-62.20621109,-34.49074554
24.31392595,-55.09115219,-62.20621109,-34.49074554
24.32392595,-74.9085083,-24.07418823,0.008973085
24.33392595,-61.3029213,-23.63869476,20.09911156
24.34392595,-43.94059753,-27.24228668,36.71487427
24.35392595,-25.91307259,-36.84228897,41.91208267
24.36392595,-11.67577839,-43.44169617,39.66283035
24.37392595,-0.75972116,-46.02115631,31.16831017
24.38392595,8.35693264,-38.41198349,10.34596729
24.39392595,9.926624298,-32.25285721,2.263011932
24.40392595,12.31466198,-26.50529671,-4.743172646
24.41392595,15.05205059,-21.56172562,-8.399405479
24.42392595,16.67438507,-17.07757568,-10.04566765
24.43392595,16.67917061,-12.46899891,-10.01216793
24.44392595,12.53480148,-6.357729912,-6.805785656
24.45392595,9.165707588,-4.567898273,-5.049454212
24.46392595,6.356533527,-3.184846878,-3.326621771
24.47392595,3.513859987,-2.404786825,-1.895713687
24.48392595,1.666600943,-1.715653777,-0.144167557
24.49392595,0.800399184,-1.505085468,2.129014015
24.50392595,0.800399184,-1.505085468,2.129014015
