Time (s),Acceleration x (m/s^2),Acceleration y (m/s^2),Acceleration z (m/s^2)
0.056811946,4.748556614,3.730410576,8.197212219
0.065466581,4.801198483,3.160918713,8.130212784
0.075466581,0,0,0
0.085466581,0,0,0
0.095466581,0,0,0
0.105466581,5.777470112,2.739781857,8.053643227
0.115466581,5.777470112,2.739781857,8.053643227
0.125466581,4.633700848,3.30927372,7.895716667
0.135466581,4.633700848,3.30927372,7.895716667
0.145466581,4.633700848,3.30927372,7.895716667
0.155466581,4.030709743,2.873780012,7.211369038
0.165466581,3.920639992,2.849851847,6.991229534
0.175466581,3.647858143,2.677568436,7.120441914
0.185466581,3.221935749,2.691925526,7.445865631
0.195466581,3.221935749,2.691925526,7.445865631
0.195466581,2.193022013,2.931207657,7.517650604
0.215466581,2.293520451,3.141776085,7.488936901
0.225466581,3.068794966,3.026920557,7.086942673
0.235466581,3.724428415,3.323630571,6.88594532
0.245466581,3.863212109,3.6299119,6.70887661
0.255466581,4.016352654,3.854837179,6.617949009
0.265466581,4.016352654,3.854837179,6.617949009
0.275466581,3.939782381,4.060619831,7.273582458
0.285466581,3.633501291,4.02712059,7.498507977
0.295466581,3.437289715,4.031906128,7.594220638
0.305466581,3.303291559,4.0127635,7.575078487
0.315466581,3.1405797,3.936193228,7.436294556
0.325466581,3.1405797,3.936193228,7.436294556
0.335466581,2.762513638,3.768695593,6.905087948
0.345466581,2.762513638,3.768695593,6.905087948
0.355466581,2.303091764,3.299702406,5.995815277
0.365466581,1.929811478,3.050848961,6.972086906
0.375466581,1.695314884,3.136990547,7.321439266
0.385466581,1.460818172,2.950350285,7.149155617
0.395466581,1.288534999,2.017149448,6.369095802
0.405466581,1.039681435,1.452443361,5.938387394
0.415466581,0.604187727,1.00737834,5.713462353
0.425466581,0.111266255,0.787238657,5.397609711
0.435466581,-0.300299227,0.658026218,4.751547337
0.445466581,-0.539581478,0.313459754,3.88056016
0.455466581,-0.539581478,0.313459754,3.88056016
0.465466581,-0.539581478,0.313459754,3.88056016
0.475466581,-1.300499082,-2.447857618,-0.646660328
0.485466581,-1.176072359,-2.921636343,-0.981655478
0.495466581,-0.845862806,-3.960121393,-0.881156921
0.505466581,-0.778863788,-5.5154562,-0.996012449
0.515466581,-1.027717352,-6.88893652,-1.345364571
0.525466581,-1.027717352,-6.88893652,-1.345364571
0.535466581,-6.196214199,-8.592626572,4.15334177
0.545466581,-6.196214199,-8.592626572,4.15334177
0.555466581,-4.683950424,-11.60279655,6.488736629
0.565466581,-4.640879631,-13.11027527,8.101499557
0.575466581,-3.521038532,-14.08176136,8.417351723
0.585466581,-0.161515534,-15.00060558,9.76211834
0.595466581,2.336591244,-15.42652798,10.1832552
0.605466581,4.494917393,-15.79980755,10.03011417
0.615466581,6.088537216,-16.14437485,9.474979401
0.625466581,7.596015453,-16.39322853,8.881559372
0.635466581,9.677771568,-16.57508278,8.714061737
0.645466581,9.677771568,-16.57508278,8.714061737
0.655466581,9.677771568,-16.57508278,8.714061737
0.665466581,9.677771568,-16.57508278,8.714061737
0.675466581,21.59881401,-16.23051643,5.83310318
0.685466581,21.93859482,-15.55574036,4.976472855
0.695466581,21.57009888,-15.05324745,5.076971531
0.705466581,21.29253197,-14.27797318,5.900102615
0.715466581,21.94816589,-12.08614731,7.599006653
0.725466581,22.86701012,-11.25344467,7.766504288
0.735466581,24.41277313,-10.67916775,7.292725086
0.745466581,26.42274475,-10.39202881,6.608377934
0.755466581,28.19343185,-10.60738277,6.125027657
0.765466581,29.34677315,-10.46381378,6.335596085
0.775466581,29.93540764,-8.013563156,8.42213726
0.785466581,31.28017426,-6.793223381,9.197412491
0.795466581,34.05106354,-6.20458889,9.058628082
0.805466581,34.05106354,-6.20458889,9.058628082
0.815466581,38.2767868,-6.046662807,5.00040102
0.825466581,39.78905106,-7.348358154,3.669991732
0.835466581,40.65525436,-9.401400566,3.306282759
0.845466581,40.65525436,-9.401400566,3.306282759
0.855466581,36.31945801,-9.300901413,9.747760773
0.865466581,35.26661682,-9.607182503,11.96830082
0.875466581,35.30968857,-10.80838013,12.85843086
0.885466581,36.15674591,-12.10050392,12.60479164
0.895466581,37.24787521,-13.41177082,11.47059345
0.905466581,36.23331833,-14.88096428,7.651648521
0.915466581,34.37170029,-15.61316776,6.732804775
0.925466581,34.37170029,-15.61316776,6.732804775
0.935466581,32.2899437,-17.77149391,9.537193298
0.945466581,33.29971695,-20.10688782,12.88235855
0.955466581,34.78326797,-22.60499573,15.39003658
0.965466581,34.78326797,-22.60499573,15.39003658
0.975466581,34.78326797,-22.60499573,15.39003658
0.985466581,34.78326797,-22.60499573,15.39003658
0.995466581,34.78326797,-22.60499573,15.39003658
1.005466581,43.52664185,-34.47817993,9.072985649
1.015466581,45.1394043,-37.32564163,7.259225845
1.025466581,46.91966248,-41.46522522,6.790232658
1.035466581,46.91966248,-41.46522522,6.790232658
1.045466581,46.91966248,-41.46522522,6.790232658
1.055466581,39.31048584,-61.38786316,20.25703812
1.065466581,34.76890945,-65.15895081,22.85564423
1.075466581,30.0933342,-67.16892242,23.50649071
1.085466581,26.02553558,-67.88198853,23.56870461
1.095466581,26.02553558,-67.88198853,23.56870461
1.105466581,11.53938675,-69.10232544,34.43212128
1.115466581,8.510073662,-67.69055939,47.84628296
1.125466581,7.87358284,-66.92485809,57.87221146
1.135466581,7.87358284,-66.92485809,57.87221146
1.145466581,7.87358284,-66.92485809,57.87221146
1.155466581,7.87358284,-66.92485809,57.87221146
1.165466581,-12.27876949,-53.53462219,18.94098663
1.175466581,-22.44347954,-49.74438858,9.771689415
1.185466581,-32.27319717,-44.81996155,-0.034097724
1.195466581,-32.27319717,-44.81996155,-0.034097724
1.205466581,-38.72424698,-35.1385994,-9.212965012
1.215466581,-38.72424698,-35.1385994,-9.212965012
1.225466581,-38.72424698,-35.1385994,-9.212965012
1.235466581,-38.72424698,-35.1385994,-9.212965012
1.245466581,-38.72424698,-35.1385994,-9.212965012
1.255466581,-16.327425,-14.50768375,-7.040282249
1.265466581,-16.29871178,-13.26341629,-9.179466248
1.275466581,-15.94935894,-13.10070419,-10.75394344
1.285466581,-15.35115337,-13.0576334,-10.63430214
1.295466581,-14.12602806,-11.85165024,-3.336193085
1.305466581,-13.35075378,-12.08136177,-0.756730139
1.315466581,-12.17827129,-12.30628681,-0.211166605
1.325466581,-10.64686394,-11.49751282,-0.416949332
1.335466581,-9.201599121,-10.36810017,-0.986441135
1.345466581,-8.196614265,-9.879964828,-1.862214208
1.355466581,-8.196614265,-9.879964828,-1.862214208
1.365466581,-8.196614265,-9.879964828,-1.862214208
1.375466581,-8.196614265,-9.879964828,-1.862214208
1.385466581,-8.196614265,-9.879964828,-1.862214208
1.395466581,-5.330012321,-13.35434341,1.717448473
1.405466581,-6.043073654,-13.45962715,3.330210924
1.415466581,-5.722435474,-13.2203455,5.254040241
1.425466581,-5.722435474,-13.2203455,5.254040241
1.435466581,-0.233300209,-12.19143105,6.574878216
1.445466581,1.489532113,-11.8468647,5.488536835
1.455466581,2.666800737,-11.82772255,4.009772778
1.465466581,3.437289715,-11.88036442,2.688934565
1.475466581,4.078566074,-12.21057415,1.660020709
1.485466581,4.078566074,-12.21057415,1.660020709
1.495466581,4.078566074,-12.21057415,1.660020709
1.505466581,5.16969347,-16.57029724,2.239083767
1.515466581,5.676971912,-18.22612953,3.981058598
1.525466581,7.002595425,-20.17867279,6.594020844
1.535466581,8.883354187,-22.26042938,9.317052841
1.545466581,8.883354187,-22.26042938,9.317052841
1.555466581,14.18106365,-24.49053955,16.4141655
1.565466581,15.94218063,-23.94976234,17.8211441
1.575466581,17.83729553,-23.30848503,18.37627983
1.585466581,19.59841347,-23.06441689,18.19921112
1.595466581,20.87618065,-23.60998154,17.31386566
1.605466581,21.48874283,-24.21297264,16.01695633
1.615466581,21.21596146,-23.69133759,13.03549957
1.625466581,21.21596146,-23.69133759,13.03549957
1.635466581,20.31626129,-22.88734818,11.35095215
1.645466581,19.98605156,-22.22692871,11.04467106
1.655466581,19.89512444,-21.69093704,10.62831974
1.665466581,19.89512444,-21.69093704,10.62831974
1.675466581,19.89512444,-21.69093704,10.62831974
1.685466581,19.89512444,-21.69093704,10.62831974
1.695466581,19.89512444,-21.69093704,10.62831974
1.705466581,20.42154503,-15.34038639,8.699705124
1.715466581,22.66122627,-14.80439377,7.417151928
1.725466581,24.86740875,-14.84267902,5.593821049
1.735466581,26.57109833,-14.80917931,3.890131474
1.745466581,26.57109833,-14.80917931,3.890131474
1.755466581,30.09811974,-12.59821129,4.50269413
1.765466581,32.03630447,-11.87557888,6.488736629
1.775466581,34.26163101,-11.66501045,8.292924881
1.785466581,36.37210083,-11.83729362,9.546764374
1.795466581,37.74558258,-12.14836025,9.862616539
1.805466581,36.97987747,-12.50249863,7.833503246
1.815466581,36.97987747,-12.50249863,7.833503246
1.825466581,36.97987747,-12.50249863,7.833503246
1.835466581,31.50031281,-12.6747818,7.800003529
1.845466581,31.35674477,-13.40219975,9.848259926
1.855466581,32.45744324,-14.90967751,12.11186981
1.865466581,33.98406219,-16.28315735,14.12184143
1.875466581,33.98406219,-16.28315735,14.12184143
1.885466581,33.85485077,-20.97787666,14.66740417
1.895466581,32.15594864,-21.38465691,13.25563908
1.905466581,31.42852974,-22.42314148,11.66201973
1.915466581,31.82095146,-24.26561356,10.07318497
1.925466581,33.05086136,-26.10808754,8.493922234
1.935466581,35.08476257,-30.74537849,5.330610752
1.945466581,35.08476257,-30.74537849,5.330610752
1.955466581,35.08476257,-30.74537849,5.330610752
1.965466581,35.08476257,-30.74537849,5.330610752
1.975466581,32.46701431,-35.77987671,8.876773834
1.985466581,32.13680267,-37.52663803,9.379266739
1.995466581,32.13680267,-37.52663803,9.379266739
2.005466581,32.13680267,-37.52663803,9.379266739
2.015466581,32.13680267,-37.52663803,9.379266739
2.025466581,32.13680267,-37.52663803,9.379266739
2.035466581,33.52464294,-61.03372574,17.83550262
2.045466581,34.39084244,-64.49853516,17.44307899
2.055466581,35.44368362,-67.87719727,15.48096466
2.065466581,35.44368362,-67.87719727,15.48096466
2.075466581,32.53879929,-77.19963837,17.26601028
2.085466581,31.50988579,-79.06604004,27.33022118
2.095466581,28.08814812,-77.23792267,38.49991989
2.105466581,23.63749886,-70.64808655,48.01856613
2.115466581,21.55574226,-63.36912155,50.02853775
2.125466581,18.09093475,-57.74120331,36.7579422
2.135466581,13.45843124,-57.82734299,27.0813694
2.145466581,5.79661274,-63.13462448,20.38146591
2.155466581,-6.617351055,-67.57091522,19.02712822
2.165466581,-22.19462585,-64.59902954,23.01835632
2.175466581,-35.74278641,-56.61657715,25.61217499
2.185466581,-40.70071793,-47.78705978,21.08974075
2.195466581,-28.88017273,-36.45943832,7.0151577
2.205466581,-23.67339134,-32.879776,2.004587173
2.215466581,-20.26122665,-29.74039268,0.157328084
2.225466581,-18.63889122,-27.72563553,0.253040999
2.235466581,-17.62433434,-27.55335236,0.506680191
2.245466581,-16.96391678,-28.38126945,-0.416949332
2.255466581,-15.0209446,-28.82154846,-1.79521513
2.265466581,-14.85344696,-28.77369308,-0.230309173
2.275466581,-14.84866047,-27.2949276,2.258226395
2.285466581,-14.05902958,-24.46182632,4.162913322
2.295466581,-12.44148159,-21.39901352,4.143770695
2.305466581,-10.79043388,-18.43669891,2.641077995
2.315466581,-9.479166985,-15.12503147,0.521037102
2.325466581,-9.479166985,-15.12503147,0.521037102
2.335466581,-9.479166985,-15.12503147,0.521037102
2.345466581,-3.224328518,-9.49232769,-4.776672363
2.355466581,-2.937189817,-8.516056061,-5.073382378
2.365466581,-3.559323788,-7.558926582,-5.652445316
2.375466581,-3.942175388,-6.783652306,-5.829514027
2.385466581,-2.683550596,-8.13320446,-5.303092957
2.395466581,-2.683550596,-8.13320446,-5.303092957
2.405466581,0.446261436,-9.908679008,-4.618745804
2.415466581,1.54217422,-11.19123173,-5.475376606
2.425466581,1.6713866,-11.87557888,-6.408577442
2.435466581,1.197607756,-11.16251755,-6.39900589
2.445466581,0.747757077,-10.55474091,-6.427719593
2.455466581,2.32701993,-10.62652493,-5.585446358
2.465466581,4.212564468,-11.69372463,-4.451248169
2.475466581,4.212564468,-11.69372463,-4.451248169
2.485466581,7.562515736,-15.10110378,-2.733201742
2.495466581,8.155936241,-17.05843353,-1.986641049
2.505466581,7.706085205,-18.44626999,-1.005583763
2.515466581,7.706085205,-18.44626999,-1.005583763
2.525466581,7.706085205,-18.44626999,-1.005583763
2.535466581,0.36011982,-17.32642937,8.063214302
2.545466581,-0.07537391,-17.37428474,10.36032391
2.555466581,0.867398202,-17.70449448,11.70509052
2.565466581,2.260020971,-17.64706612,11.69073296
2.575466581,2.260020971,-17.64706612,11.69073296
2.585466581,7.916653633,-17.52742577,8.431708336
2.595466581,10.07019424,-17.76670837,7.814360619
2.605466581,12.09930801,-18.6233387,7.890930653
2.615466581,13.02772331,-19.86760712,7.752147198
2.625466581,12.53958702,-20.72902298,8.149355888
2.635466581,11.17089272,-20.40838432,9.484550476
2.645466581,11.17089272,-20.40838432,9.484550476
2.655466581,11.17089272,-20.40838432,9.484550476
2.665466581,12.10409355,-17.84806442,14.054842
2.675466581,13.4967165,-17.22114372,12.66700459
2.685466581,14.78405476,-17.35992813,10.40818024
2.695466581,15.68854141,-18.37448502,8.249854088
2.705466581,15.68854141,-18.37448502,8.249854088
2.715466581,15.68854141,-18.37448502,8.249854088
2.725466581,15.68854141,-18.37448502,8.249854088
2.735466581,24.82912445,-23.54776764,8.747561455
2.745466581,27.69572639,-25.6008091,7.776075363
2.755466581,28.83949471,-26.57708168,5.971887112
2.765466581,28.82035255,-26.31865692,3.674777269
2.775466581,28.82035255,-26.31865692,3.674777269
2.785466581,27.4708004,-22.46142578,0.310468733
2.795466581,27.74358177,-21.17408752,0.793818891
2.805466581,28.47100067,-21.16930199,1.119242787
2.815466581,29.12663269,-22.60978127,0.166899383
2.825466581,29.07877731,-23.75833511,-0.464805812
2.835466581,27.43730164,-23.79183578,0.68374908
2.845466581,27.49951363,-23.79662132,2.172084808
2.855466581,27.6717968,-23.81576347,2.535793781
2.865466581,27.35594559,-24.19383049,1.24366951
2.875466581,26.32224464,-25.05046082,-0.383449823
2.885466581,25.049263,-25.96930504,-0.541376114
2.895466581,23.52742958,-26.43351173,1.353739381
2.905466581,23.31207466,-28.7641201,7.871788502
2.915466581,24.52284241,-30.66880798,10.17846966
2.925466581,25.48954391,-32.31507111,10.47996521
2.935466581,25.50390053,-33.01377487,9.384052277
2.945466581,25.86282349,-33.67419434,8.876773834
2.955466581,26.85823822,-35.17210007,9.010771751
2.965466581,27.66701126,-37.07200241,11.96830082
2.975466581,28.42314339,-39.14418411,13.26999664
2.985466581,27.78186798,-42.57549286,12.65743351
2.995466581,27.78186798,-42.57549286,12.65743351
3.005466581,24.86262321,-49.3950386,14.8779726
3.015466581,24.10649109,-54.8411026,15.83510208
3.025466581,24.10649109,-54.8411026,15.83510208
3.035466581,24.10649109,-54.8411026,15.83510208
3.045466581,24.10649109,-54.8411026,15.83510208
3.055466581,22.16351891,-74.17510986,13.54277802
3.065466581,18.38764572,-81.67421722,16.39502335
3.075466581,11.72602749,-82.42556,25.03789711
3.085466581,5.777470112,-75.371521,36.1932373
3.095466581,5.571687698,-60.55516434,44.68775558
3.105466581,5.571687698,-60.55516434,44.68775558
3.115466581,7.462017536,-55.56851959,31.14438057
3.125466581,7.462017536,-55.56851959,31.14438057
3.135466581,-2.803191662,-50.44309235,16.1892395
3.145466581,-12.3361969,-45.66701889,13.80120277
3.155466581,-12.3361969,-45.66701889,13.80120277
3.165466581,-12.3361969,-45.66701889,13.80120277
3.175466581,-12.3361969,-45.66701889,13.80120277
3.185466581,-37.70490265,-36.69871902,8.383852005
3.195466581,-33.27339554,-30.13760185,6.019743443
3.205466581,-25.24786758,-27.42414093,3.177070379
3.215466581,-18.84467506,-24.08854485,0.73160553
3.225466581,-18.84467506,-24.08854485,0.73160553
3.235466581,-7.737192154,-18.25005913,-4.690530777
3.245466581,-7.560122967,-19.6522522,-8.791828156
3.255466581,-8.785248756,-19.84846306,-11.85942745
3.265466581,-9.842875481,-19.27418709,-12.95055389
3.275466581,-10.51765156,-18.19741631,-12.33799171
3.285466581,-9.991230965,-14.22533035,-6.906284332
3.295466581,-7.694121361,-13.62233925,-4.767100811
3.305466581,-5.200799942,-14.12961769,-4.470390797
3.315466581,-3.071187973,-14.28275871,-4.38424921
3.325466581,-1.755135417,-14.37368584,-4.776672363
3.335466581,-2.583052158,-14.22054482,-6.41336298
3.345466581,-4.18145752,-12.04307652,-7.43749094
3.355466581,-5.980860233,-6.520441532,-5.346164227
3.365466581,-4.832305431,-5.103890896,-3.087339401
3.375466581,-1.826920033,-4.960321426,-0.536590457
3.385466581,1.929811478,-6.42472887,0.281754881
3.395466581,1.929811478,-6.42472887,0.281754881
3.405466581,6.17946434,-10.01874828,-3.900899172
3.415466581,6.17946434,-10.01874828,-3.900899172
3.425466581,6.17946434,-10.01874828,-3.900899172
3.435466581,0.092123672,-11.10509014,-10.70608711
3.445466581,-0.692722142,-12.55992603,-7.834699631
3.455466581,-0.142372951,-15.10588932,-5.149952412
3.465466581,0.608973384,-16.88136292,-2.838485956
3.475466581,0.608973384,-16.88136292,-2.838485956
3.485466581,1.412961721,-18.97747612,-0.335593373
3.495466581,1.245464206,-19.67139435,-0.967298567
3.505466581,1.661815286,-20.40359879,-1.37886405
3.515466581,3.360719442,-21.59522438,-1.3310076
3.525466581,5.47597456,-23.37548447,-1.661217093
3.535466581,6.748956203,-24.99303246,-1.852642894
3.545466581,7.150950432,-25.51945305,-0.010169496
3.555466581,8.352147102,-25.61516571,0.927816987
3.565466581,10.6540432,-25.98844719,1.406381488
3.575466581,10.6540432,-25.98844719,1.406381488
3.585466581,10.6540432,-25.98844719,1.406381488
3.595466581,12.96072388,-26.95514679,1.301097274
3.605466581,12.96072388,-26.95514679,1.301097274
3.615466581,10.31426239,-21.13101768,6.617949009
3.625466581,10.31426239,-21.13101768,6.617949009
3.635466581,14.2002058,-19.78146553,11.37966633
3.645466581,16.96630859,-20.10210228,11.82951736
3.655466581,19.27777481,-20.70509338,11.64766216
3.665466581,20.8570385,-21.22673035,11.09731293
3.675466581,20.8570385,-21.22673035,11.09731293
3.685466581,22.69472694,-21.42294121,9.317052841
3.695466581,24.85783768,-22.8394928,9.049057007
3.705466581,27.69094086,-24.39482689,8.575278282
3.715466581,30.27997398,-25.73959351,8.001000404
3.725466581,33.79742432,-27.74956512,8.302495956
3.735466581,33.79742432,-27.74956512,8.302495956
3.745466581,43.01457596,-31.87957573,8.804988861
3.755466581,42.11008835,-30.09453011,9.058628082
3.765466581,38.68356705,-27.84049225,10.02532864
3.775466581,34.04149246,-26.04587364,11.53280735
3.785466581,28.95434952,-25.01217461,12.63829136
3.795466581,24.66162682,-24.70589447,13.16949749
3.805466581,19.65584183,-25.04567528,13.35613823
3.815466581,19.34477425,-25.85444832,11.79601765
3.825466581,19.34477425,-25.85444832,11.79601765
3.835466581,18.86621094,-23.39462662,7.962715626
3.845466581,18.21057701,-21.77707863,6.225526333
3.855466581,16.90888214,-20.06381798,5.167898655
3.865466581,16.90888214,-20.06381798,5.167898655
3.875466581,16.90888214,-20.06381798,5.167898655
3.885466581,12.47258759,-19.22154427,11.14516926
3.895466581,13.47278786,-20.74337959,11.82951736
3.905466581,14.2624197,-21.66700935,10.43210888
3.915466581,15.40618896,-22.17907333,8.541778564
3.925466581,17.16252136,-24.61018181,4.909473896
3.935466581,17.58365631,-26.92164803,3.54556489
3.945466581,17.09073639,-28.87897682,2.870789051
3.955466581,15.58804321,-30.62573624,3.205784082
3.965466581,13.13779259,-32.01357269,4.564907551
3.975466581,10.16112137,-33.16212845,6.723233223
3.985466581,7.342376232,-34.19582748,9.580264091
3.995466581,7.342376232,-34.19582748,9.580264091
4.005466581,7.342376232,-34.19582748,9.580264091
4.015466581,3.753142357,-37.32085419,24.36790848
4.025466581,3.753142357,-37.32085419,24.36790848
4.035466581,2.997010469,-38.99583054,27.59821892
4.045466581,7.088737011,-46.55715179,30.70410156
4.055466581,7.088737011,-46.55715179,30.70410156
4.065466581,18.02393723,-82.44470215,45.3912468
4.075466581,14.93719578,-95.75836945,47.62614441
4.085466581,8.639286041,-109.0768204,43.8359108
4.095466581,3.49471736,-120.0120163,31.97708321
4.105466581,2.504088879,-126.2190018,13.83470249
4.115466581,1.68574357,-120.9978638,-6.107081413
4.125466581,-6.492924213,-92.23613739,-32.8684082
4.135466581,-15.89193153,-73.97889709,-32.94498062
4.145466581,-19.38066673,-59.71289063,-21.27279091
4.155466581,-11.07757282,-52.14199829,-4.566103935
4.165466581,2.810370207,-49.28975296,5.933601856
4.175466581,15.67897034,-49.50032043,9.178269386
4.185466581,15.67897034,-49.50032043,9.178269386
4.195466581,15.67897034,-49.50032043,9.178269386
4.205466581,15.67897034,-49.50032043,9.178269386
4.215466581,10.98425198,-44.00640106,-47.91926575
4.225466581,10.98425198,-44.00640106,-47.91926575
4.235466581,5.657829285,-37.16292953,-37.09413528
4.245466581,0.24047868,-33.12862778,-24.57967186
4.255466581,0.24047868,-33.12862778,-24.57967186
4.265466581,0.24047868,-33.12862778,-24.57967186
4.275466581,1.365105271,-20.94437599,-5.614160061
4.285466581,5.87318325,-21.63350868,-6.518647194
4.295466581,10.13240719,-22.02114677,-6.466004848
4.305466581,13.71207047,-20.50888252,-6.102295876
4.315466581,17.5310154,-16.60858154,-9.466604233
4.325466581,19.36870384,-18.42712784,-12.06999588
4.335466581,21.23510361,-21.04966164,-13.72582912
4.345466581,21.92902374,-22.63849449,-13.74018574
4.355466581,22.03909302,-23.47119713,-11.95514011
4.365466581,20.25883293,-23.4424839,-8.614759445
4.375466581,18.34935951,-22.0115757,-6.667002201
4.385466581,18.34935951,-22.0115757,-6.667002201
4.395466581,18.34935951,-22.0115757,-6.667002201
4.405466581,16.52124405,-17.26900101,-0.158524498
4.415466581,17.89950943,-15.78545094,1.152742267
4.425466581,19.45484543,-14.63689613,1.621735573
4.435466581,20.9192524,-13.88554955,1.047458172
4.445466581,21.20639038,-14.689538,-2.594418049
4.455466581,19.71805573,-15.54138279,-4.255036831
4.465466581,17.68415642,-16.2640152,-5.078167915
4.475466581,17.68415642,-16.2640152,-5.078167915
4.485466581,15.09033585,-15.72323799,-2.345564365
4.495466581,15.70289898,-15.04367638,0.597607434
4.505466581,15.70289898,-15.04367638,0.597607434
4.515466581,15.70289898,-15.04367638,0.597607434
4.525466581,23.60878372,-14.42154217,6.594020844
4.535466581,25.16411972,-15.84766483,6.507879257
4.545466581,25.56132698,-16.23051643,6.407381058
4.555466581,24.8482666,-15.30688667,6.512664795
4.565466581,23.87199593,-14.41675663,6.90030241
4.575466581,24.19741821,-14.01954746,8.670990944
4.585466581,24.85783768,-13.90947819,8.47956562
4.595466581,24.69034004,-13.35434341,7.551149845
4.605466581,23.59921265,-12.21535969,6.890730858
4.615466581,22.08216286,-11.27258778,6.981658459
4.625466581,20.23490524,-10.99023438,7.857431412
4.635466581,20.23490524,-10.99023438,7.857431412
4.645466581,14.04227924,-8.291130066,12.82014561
4.655466581,14.04227924,-8.291130066,12.82014561
4.665466581,12.69751358,-5.601597786,14.17926884
4.675466581,13.46800232,-5.213960648,14.08355618
4.685466581,14.41077423,-4.835894585,13.30828094
4.695466581,14.93240929,-4.0127635,12.39900875
4.705466581,14.93240929,-4.0127635,12.39900875
4.715466581,14.6261282,-2.907279491,10.47039413
4.725466581,14.8079834,-3.304488182,10.71924686
4.735466581,15.31047535,-4.357329845,10.9489584
4.745466581,15.54018688,-4.893322468,10.70010471
4.755466581,15.33918953,-5.056034088,10.09711361
4.765466581,14.07099342,-4.821537495,8.460422516
4.775466581,13.30050468,-4.567898273,8.154141426
4.785466581,11.87916756,-4.357329845,8.709276199
4.795466581,10.09890842,-4.663611412,10.55174923
4.805466581,7.634300709,-5.462814331,13.49013615
4.815466581,4.939982414,-5.740381718,17.75414658
4.825466581,2.700300455,-5.601597786,21.86022949
4.835466581,3.049652576,-7.965706348,24.4971199
4.845466581,3.049652576,-7.965706348,24.4971199
4.855466581,3.049652576,-7.965706348,24.4971199
4.865466581,9.285347939,-11.38265705,34.40340424
4.875466581,11.47238827,-12.64606762,42.56771851
4.885466581,12.98943806,-16.01037598,51.24409103
4.895466581,19.34477425,-32.85106277,59.09733582
4.905466581,23.13022041,-45.30331039,58.58526993
4.915466581,21.36910248,-56.1715126,55.18267822
4.925466581,17.50230217,-67.70491791,47.80799866
4.935466581,12.26680565,-79.63074493,37.27000809
4.945466581,5.078765869,-90.09216309,27.90449905
4.955466581,-9.991230965,-104.2672501,27.3445797
4.965466581,-14.57109356,-103.4201889,26.29652214
4.975466581,-14.57109356,-103.4201889,26.29652214
4.985466581,-12.62333584,-94.83952332,11.52802086
4.995466581,-7.904689789,-85.34480286,5.254040241
5.005466581,-7.904689789,-85.34480286,5.254040241
5.015466581,3.059223652,-66.84349823,0.798604548
5.025466581,3.059223652,-66.84349823,0.798604548
5.035466581,10.92682457,-56.22415543,-9.748957634
5.045466581,10.81675434,-55.08995438,-13.93639755
5.055466581,10.88853931,-54.28118134,-16.93221092
5.065466581,9.639486313,-52.26642609,-18.66940117
5.075466581,6.131608009,-49.04568481,-20.77508354
5.085466581,-1.266999602,-38.73262024,-18.85125542
5.095466581,-0.017946171,-34.66003418,-13.52004623
5.105466581,4.135993958,-32.22892761,-9.165108681
5.115466581,4.135993958,-32.22892761,-9.165108681
5.125466581,12.37687492,-31.77907753,-10.81615639
5.135466581,14.0805645,-30.01317406,-13.91725445
5.145466581,15.41576004,-29.03690338,-16.96571159
5.155466581,15.41576004,-29.03690338,-16.96571159
5.165466581,13.41536045,-20.58545303,-17.73141479
5.175466581,14.07099342,-19.92024803,-16.53021622
5.185466581,14.83191109,-21.16930199,-15.09930897
5.195466581,14.3629179,-22.73899269,-13.63011551
5.205466581,13.01815128,-23.38505554,-11.34736347
5.215466581,11.59202957,-24.57668114,-6.470790863
5.225466581,12.3481617,-26.46222496,-6.332006931
5.235466581,13.80299759,-27.94099045,-7.265207767
5.245466581,15.27219009,-29.74517822,-7.719843864
5.255466581,15.27219009,-29.74517822,-7.719843864
5.265466581,15.08076477,-33.30091095,-6.241079807
5.275466581,13.8173542,-32.75056458,-2.752344131
5.285466581,15.84646797,-32.22414398,4.430909157
5.295466581,17.72722626,-32.71227646,5.828317642
5.305466581,19.96212196,-33.51148224,6.732804775
5.315466581,22.76651192,-35.17688751,7.321439266
5.325466581,25.09712029,-37.00021744,8.843274117
5.335466581,26.57109833,-37.33042526,12.21236897
5.345466581,26.57109833,-37.33042526,12.21236897
5.355466581,26.57109833,-37.33042526,12.21236897
5.365466581,26.57109833,-37.33042526,12.21236897
5.375466581,37.16173172,-29.16132927,15.40917969
5.385466581,38.10450363,-29.716465,12.68136215
5.395466581,37.20480347,-31.55415154,10.69531918
5.405466581,37.20480347,-31.55415154,10.69531918
5.415466581,25.01576424,-32.85106277,17.54357719
5.425466581,20.32104683,-29.17568588,21.27638054
5.435466581,16.42074585,-24.06461716,23.73620224
5.445466581,14.07099342,-19.86760712,23.95155716
5.455466581,12.89851093,-16.46022606,22.03251266
5.465466581,12.08973598,-14.35932827,19.63490486
5.475466581,9.783055305,-11.88993549,15.8686018
5.485466581,9.113064766,-11.62193966,15.38046551
5.495466581,8.423932076,-11.44965649,15.36132336
5.505466581,7.083951473,-10.80838013,15.28475285
5.515466581,5.552545071,-9.147761345,15.56710625
5.525466581,4.504488468,-7.381857872,15.93560028
5.535466581,3.016152859,-5.687739372,14.11705494
5.545466581,2.216950178,-5.01774931,12.7005043
5.555466581,1.982453585,-4.850251675,10.87717342
5.565466581,2.063809633,-5.5154562,8.843274117
5.575466581,2.063809633,-5.5154562,8.843274117
5.585466581,2.456232548,-6.242874146,6.081956863
5.595466581,2.384447813,-6.678368092,5.498108387
5.605466581,2.384447813,-6.678368092,5.498108387
5.615466581,1.987239242,-11.42094231,10.666605
5.625466581,0.355334163,-12.96670628,13.29392433
5.635466581,-2.209771633,-13.46441269,16.64387703
5.645466581,-4.8849473,-13.43569946,20.36232185
5.655466581,-6.674778938,-13.02891922,24.0568409
5.665466581,-6.674778938,-13.02891922,24.0568409
5.675466581,-3.544966698,-10.3154583,33.74298859
5.685466581,-0.209371984,-8.803194046,36.22195053
5.695466581,4.791627407,-7.525427341,38.36113358
5.705466581,10.75932693,-6.486942291,38.47120285
5.715466581,16.72702599,-6.242874146,36.47080612
5.725466581,22.12044907,-7.056434155,34.26940918
5.735466581,22.12044907,-7.056434155,34.26940918
5.745466581,22.12044907,-7.056434155,34.26940918
5.755466581,22.12044907,-7.056434155,34.26940918
5.765466581,17.94736671,-30.64009476,42.86442566
5.775466581,17.4305172,-41.70929337,45.13760757
5.785466581,18.03829384,-54.45825195,43.65405655
5.795466581,18.03829384,-54.45825195,43.65405655
5.805466581,20.59861374,-97.77790833,16.78744507
5.815466581,20.25404739,-115.0445175,12.8632164
5.825466581,13.58285809,-123.6586838,14.77268887
5.835466581,7.284948349,-126.7980652,15.0598278
5.845466581,5.528616905,-130.8084412,12.01137161
5.855466581,11.91266727,-122.2134171,-3.474976778
5.865466581,11.91266727,-122.2134171,-3.474976778
5.875466581,20.48854446,-97.92626953,-10.07438183
5.885466581,21.2973175,-85.36394501,-15.28594971
5.895466581,21.17289162,-72.56713104,-21.63650131
5.905466581,20.25883293,-62.33063889,-24.34996223
5.915466581,18.43071556,-57.88955688,-25.13480759
5.925466581,18.43071556,-57.88955688,-25.13480759
5.935466581,18.43071556,-57.88955688,-25.13480759
5.945466581,14.25763416,-45.52823639,-7.638488293
5.955466581,14.25763416,-45.52823639,-7.638488293
5.965466581,18.47857285,-42.48456573,-6.93978405
5.975466581,19.62234116,-41.66622162,-9.591031075
5.985466581,19.62234116,-41.66622162,-9.591031075
5.995466581,11.34317589,-31.53979492,-14.20917892
6.005466581,9.816555023,-29.71167946,-11.24207878
6.015466581,9.720842361,-27.90270424,-7.7868433
6.025466581,10.89332485,-26.28515625,-6.025725842
6.035466581,13.22871971,-24.83989143,-5.532804012
6.045466581,16.0761795,-23.47119713,-6.231508255
6.055466581,20.44068718,-21.83450699,-10.84487057
6.065466581,20.57947159,-23.99761772,-13.17547989
6.075466581,20.34497452,-27.73999214,-15.43908978
6.085466581,17.45444489,-28.31905556,-14.22353554
6.095466581,12.66401386,-26.73500824,-8.997611046
6.105466581,10.69232845,-26.27558517,-4.274179459
6.115466581,10.69232845,-26.27558517,-4.274179459
6.125466581,11.28574753,-33.25784302,3.918845177
6.135466581,10.08455086,-32.91327667,4.048057556
6.145466581,8.92642498,-31.53979492,3.153141975
6.155466581,8.380861282,-30.9224472,2.234298229
6.165466581,8.892925262,-31.47758102,2.229512453
6.175466581,9.931410789,-32.02793121,3.583850145
6.185466581,9.931410789,-32.02793121,3.583850145
6.195466581,9.931410789,-32.02793121,3.583850145
6.205466581,18.67478371,-33.88954544,10.11147022
6.215466581,19.45484543,-33.40141296,10.92024422
6.225466581,20.08176422,-32.10928726,11.43709373
6.235466581,21.42653084,-31.88436127,11.99222851
6.245466581,21.42653084,-31.88436127,11.99222851
6.255466581,25.17847633,-32.01357269,13.75813198
6.265466581,26.42753029,-32.54478073,14.29891014
6.275466581,27.04966354,-33.37748337,14.94497204
6.285466581,26.67638397,-33.33919907,15.55753422
6.295466581,26.06860542,-32.46821213,16.13181114
6.305466581,25.67139816,-31.26222801,17.29472351
6.315466581,25.67139816,-31.26222801,17.29472351
6.325466581,25.67139816,-31.26222801,17.29472351
6.335466581,25.67139816,-31.26222801,17.29472351
6.345466581,18.44985962,-21.93979073,16.13659859
6.355466581,15.88953876,-20.54238319,14.74397469
6.365466581,12.9320097,-19.54218292,14.02134228
6.375466581,12.9320097,-19.54218292,14.02134228
6.385466581,6.945167542,-13.52184105,15.31825256
6.395466581,6.428318024,-12.60778236,14.66261864
6.405466581,6.586244106,-11.00937653,13.32742405
6.415466581,7.734799385,-9.942177773,11.2695961
6.425466581,8.998209953,-10.2149601,8.431708336
6.435466581,8.998209953,-10.2149601,8.431708336
6.445466581,7.02652359,-12.28235817,2.018944025
6.455466581,5.093122959,-13.74198055,1.258026481
6.465466581,2.882154942,-14.88096428,1.880160451
6.475466581,0.45583272,-14.95753479,3.55992198
6.485466581,-1.310070395,-14.51725483,5.435894966
6.495466581,-1.348355532,-14.67996693,6.795018196
6.505466581,1.532602906,-17.14936066,8.312067986
6.515466581,2.015953064,-17.11107445,9.39840889
6.525466581,1.097109199,-16.38365746,11.26002502
6.535466581,-0.932004392,-15.74716568,14.720047
6.545466581,-3.147758245,-14.40239906,19.69233131
6.555466581,-4.535595417,-12.22493076,24.2578373
6.565466581,-4.779663086,-9.779465675,29.38805008
6.575466581,-4.779663086,-9.779465675,29.38805008
6.585466581,-4.779663086,-9.779465675,29.38805008
6.595466581,5.648257732,-8.92283535,32.17808151
6.605466581,11.42453194,-8.23370266,33.74777222
6.615466581,17.41615868,-8.094919205,36.12145233
6.625466581,21.9242382,-9.635896683,38.73441315
6.635466581,22.4506588,-17.06321907,43.52006149
6.645466581,19.9286232,-23.2797718,43.01756668
6.655466581,16.68874168,-31.19522858,40.47160339
6.665466581,13.60200024,-40.56552124,38.10749435
6.675466581,11.22353458,-51.43850708,36.52823257
6.685466581,10.01276588,-64.78088379,35.11646652
6.695466581,12.41516018,-94.40882111,26.83251572
6.705466581,13.16650677,-108.1771164,18.87877274
6.715466581,13.16650677,-108.1771164,18.87877274
6.725466581,7.749155998,-125.2140198,4.962115765
6.735466581,2.030309916,-125.8840027,-0.058025949
6.745466581,-2.59740901,-122.3665543,0.0951147
6.755466581,-1.243071318,-119.0166092,2.956930637
6.765466581,10.52961636,-105.0138092,2.401795626
6.775466581,13.80778313,-94.81559753,-1.910070658
6.785466581,16.10967827,-82.65527344,-7.490133286
6.795466581,19.96690941,-71.72964478,-13.61097336
6.805466581,23.83849525,-62.79484558,-16.75514221
6.815466581,26.52324295,-56.45386505,-15.53958893
6.825466581,28.22693253,-52.13242722,-11.19900799
6.835466581,28.22693253,-52.13242722,-11.19900799
6.845466581,19.98126602,-47.85884476,-11.73500061
6.855466581,13.82692528,-43.46083832,-11.45743275
6.865466581,10.40997505,-39.8572464,-12.03649616
6.875466581,8.993423462,-36.86621857,-11.89771271
6.885466581,8.993423462,-36.86621857,-11.89771271
6.895466581,10.1084795,-31.42494011,-10.64387321
6.905466581,9.20399189,-29.5537529,-10.44287586
6.915466581,8.443074226,-26.74936485,-8.98803997
6.925466581,9.462417603,-25.28974342,-7.691130161
6.935466581,11.97966671,-25.01217461,-6.485147476
6.945466581,14.93719578,-25.35674095,-5.690730572
6.955466581,19.58884239,-26.81157684,-6.71964407
6.965466581,19.58884239,-26.81157684,-6.71964407
6.975466581,20.6943264,-36.09572983,-8.274978638
6.985466581,16.31067467,-39.46482468,-6.480361938
6.995466581,10.82154083,-40.23052597,-2.551347256
7.005466581,6.648457527,-40.50809479,1.526022673
7.015466581,6.648457527,-40.50809479,1.526022673
7.025466581,6.648457527,-40.50809479,1.526022673
7.035466581,6.648457527,-40.50809479,1.526022673
7.045466581,7.524230957,-37.94298935,10.14496994
7.055466581,6.820741177,-36.52643585,11.11645603
7.065466581,7.050451756,-34.8993187,12.98764324
7.075466581,8.59142971,-33.21477127,14.95932865
7.085466581,14.10449314,-31.48236847,15.83988762
7.095466581,16.75574112,-30.85544777,14.58126259
7.105466581,19.04806519,-31.6115799,13.13599777
7.115466581,20.84746742,-34.15275574,12.98764324
7.125466581,20.79961014,-34.95196152,14.62911987
7.135466581,20.4311161,-34.43989563,17.25643921
7.145466581,22.89093781,-32.35335541,23.09971237
7.155466581,24.67598343,-30.30509949,24.22912407
7.165466581,25.35075951,-28.44348335,23.28635216
7.175466581,24.15434837,-26.24687195,20.96052742
7.185466581,20.89053726,-24.49053955,18.42413521
7.195466581,16.3393898,-22.58106804,17.04108429
7.205466581,12.36730385,-20.39881325,17.40958023
7.215466581,12.36730385,-20.39881325,17.40958023
7.225466581,5.097908497,-10.10488987,18.47677803
7.235466581,3.762713671,-6.357729912,17.27558136
7.245466581,3.451646566,-3.864408493,15.53360653
7.255466581,3.609572887,-2.122433662,13.5284214
7.265466581,4.064209461,-0.930808008,11.6524477
7.275466581,5.657829285,1.619940877,6.919445038
7.285466581,6.00239563,2.213361025,4.962115765
7.295466581,6.490531445,2.586641312,4.531407833
7.305466581,7.04088068,2.902493954,5.148756027
7.315466581,7.658228874,2.835494757,5.852245808
7.325466581,8.074580193,1.993221283,5.679962635
7.335466581,7.605587006,0.346959293,5.182255745
7.345466581,4.896911621,-0.437886536,5.871388435
7.355466581,1.288534999,-1.064806104,7.986643791
7.365466581,1.288534999,-1.064806104,7.986643791
7.375466581,-3.903890133,-0.557527661,14.59083462
7.385466581,-3.903890133,-0.557527661,14.59083462
7.395466581,-2.994617462,-0.897308469,23.00878525
7.405466581,-2.994617462,-0.897308469,23.00878525
7.415466581,-2.994617462,-0.897308469,23.00878525
7.425466581,6.198606968,-3.294916868,35.97309875
7.435466581,6.198606968,-3.294916868,35.97309875
7.445466581,17.01895142,0.748953462,40.25624847
7.455466581,23.02972221,1.208375454,40.61517334
7.465466581,23.02972221,1.208375454,40.61517334
7.475466581,29.45684242,-7.348358154,35.52324677
7.485466581,24.49412918,-12.28714466,32.36950684
7.495466581,18.6987133,-19.64746666,30.84767151
7.505466581,12.13759327,-30.12324333,30.94816971
7.515466581,4.719842434,-42.02993011,33.0299263
7.525466581,-3.846462488,-54.78845978,37.46143341
7.535466581,-21.07957077,-80.09016418,45.78366852
7.545466581,-26.99941444,-86.69914246,43.78327179
7.555466581,-29.03331375,-87.13941956,33.3936348
7.565466581,-23.57289314,-80.55915833,20.25225258
7.575466581,-11.94377422,-70.99744415,9.867402077
7.585466581,-0.276371002,-59.93781281,6.55095005
7.595466581,-0.276371002,-59.93781281,6.55095005
7.605466581,-0.276371002,-59.93781281,6.55095005
7.615466581,-0.276371002,-59.93781281,6.55095005
7.625466581,3.499503136,-46.59064865,0.568893611
7.635466581,3.499503136,-46.59064865,0.568893611
7.645466581,2.930011272,-53.85047531,-2.565704107
7.655466581,-1.180858016,-54.3768959,-6.087938786
7.665466581,-1.180858016,-54.3768959,-6.087938786
7.675466581,-15.32722569,-46.77729034,-6.016154289
7.685466581,-17.38505363,-44.39403915,-4.853242397
7.695466581,-16.43270874,-40.40280914,-2.651845694
7.705466581,-10.7617197,-37.40699768,1.224527001
7.715466581,-2.870190859,-36.770504,3.937987804
7.725466581,10.38126087,-38.17269897,-1.594218135
7.735466581,13.89871025,-37.48356628,-7.011568546
7.745466581,16.21017647,-37.06721497,-13.16590881
7.755466581,17.1673069,-34.8993187,-17.4442749
7.765466581,18.15793419,-33.03291702,-18.24347878
7.775466581,20.34976006,-32.6787796,-16.22872162
7.785466581,22.98665047,-29.89353371,-10.39980507
7.795466581,23.15893364,-28.83590508,-8.863613129
7.805466581,23.84328079,-29.75953484,-7.997411251
7.815466581,23.84328079,-29.75953484,-7.997411251
7.825466581,23.84328079,-29.75953484,-7.997411251
7.835466581,18.98106575,-32.24806976,-4.92502737
7.845466581,16.0378933,-31.68815041,-2.024926186
7.855466581,16.0378933,-31.68815041,-2.024926186
7.865466581,16.0378933,-31.68815041,-2.024926186
7.875466581,10.36211872,-28.27120018,4.105485439
7.885466581,9.778269768,-28.35734177,3.803989887
7.895466581,9.352347374,-26.74457932,5.569892883
7.905466581,10.24247742,-25.48595428,7.92443037
7.915466581,13.41536045,-23.36112785,9.159127235
7.925466581,14.62134266,-21.82493591,8.292924881
7.935466581,15.79861164,-20.85823441,7.144370079
7.945466581,16.48774529,-20.36531258,5.603392601
7.955466581,16.91366768,-20.71466637,4.34476757
7.965466581,16.74617004,-21.58565331,3.937987804
7.975466581,15.62154293,-21.52822495,5.196612358
7.985466581,15.62154293,-21.52822495,5.196612358
7.985466581,14.88933849,-21.40379906,9.690333366
8.005466581,16.59781456,-20.45624161,13.06899929
8.015466581,18.68914032,-20.45624161,13.48535061
8.025466581,20.61297035,-21.07358932,12.3798666
8.035466581,21.24946213,-21.76750755,11.74816132
8.045466581,22.03430748,-22.4135704,14.8779726
8.055466581,22.61815643,-22.38006973,15.71067524
8.065466581,23.97727966,-21.40379906,15.69631863
8.075466581,25.14976311,-20.04946136,13.96391487
8.085466581,25.43211555,-18.71426582,11.27438164
8.095466581,25.14497757,-18.46541214,9.216554642
8.105466581,23.76192474,-18.0586319,8.623134613
8.115466581,17.83729553,-17.93420601,10.58524895
8.125466581,14.70269871,-18.07777596,12.50429249
8.135466581,11.58245754,-18.43191338,14.85883045
8.145466581,7.476374149,-16.56072617,17.18465424
8.155466581,3.016152859,-12.76092339,18.79741669
8.165466581,-0.008374879,-8.520841599,18.67777443
8.175466581,-0.501296341,-6.95114994,13.55713463
8.185466581,-0.34337005,-7.022934437,10.94417286
8.195466581,-1.147358418,-5.826523304,9.728618622
8.205466581,-1.960918188,-3.873979807,9.293125153
8.215466581,-1.434497118,-2.390429735,8.953344345
8.225466581,0.16869399,-2.069791555,8.460422516
8.235466581,0.16869399,-2.069791555,8.460422516
8.245466581,4.30827713,-3.361915827,5.478965759
8.255466581,3.930211306,-5.233103275,4.517050743
8.265466581,3.930211306,-5.233103275,4.517050743
8.275466581,3.930211306,-5.233103275,4.517050743
8.285466581,3.930211306,-5.233103275,4.517050743
8.295466581,-5.851647854,-8.61655426,14.54297829
8.305466581,-5.851647854,-8.61655426,14.54297829
8.315466581,-5.851647854,-8.61655426,14.54297829
8.325466581,-5.851647854,-8.61655426,14.54297829
8.335466581,-0.544367135,-14.8522501,49.67918396
8.345466581,8.553144455,-15.54616833,49.67918396
8.355466581,18.14836311,-15.8380928,47.78885651
8.365466581,18.14836311,-15.8380928,47.78885651
8.375466581,18.14836311,-15.8380928,47.78885651
8.385466581,35.27140045,-22.49014091,28.59363174
8.395466581,28.85385132,-26.2277298,26.88037109
8.405466581,22.29751778,-33.32962799,26.80858612
8.415466581,22.29751778,-33.32962799,26.80858612
8.425466581,12.72622681,-59.58846283,25.81795883
8.435466581,2.719442844,-91.80542755,20.63031769
8.445466581,-4.870590687,-104.0806046,25.25803757
8.455466581,-11.87677479,-113.1876907,28.69891739
8.465466581,-11.75713444,-125.2044449,26.90908432
8.475466581,-4.731806755,-132.7322693,18.42413521
8.485466581,2.140379906,-126.4774246,6.881159782
8.495466581,6.624529362,-95.78708649,-17.15235138
8.505466581,4.480560303,-78.16633606,-23.98146629
8.515466581,9.036494255,-65.06324005,-26.51785851
8.525466581,15.5736866,-58.65047455,-27.94398117
8.535466581,15.5736866,-58.65047455,-27.94398117
8.545466581,16.82273865,-52.49135208,-25.17309189
8.555466581,12.2859478,-52.85506058,-25.84786797
8.565466581,12.2859478,-52.85506058,-25.84786797
8.575466581,12.2859478,-52.85506058,-25.84786797
8.585466581,5.246263504,-41.69493484,-15.18545055
8.595466581,7.093522549,-38.41198349,-12.41456223
8.605466581,8.878568649,-35.76551819,-10.87837029
8.615466581,9.357132912,-35.34917068,-12.4863472
8.625466581,4.65762949,-24.72982216,-15.58744526
8.635466581,5.112265587,-20.1930294,-15.92244053
8.645466581,5.112265587,-20.1930294,-15.92244053
8.655466581,5.112265587,-20.1930294,-15.92244053
8.665466581,12.99900913,-14.55554008,-15.86022663
8.675466581,15.00419426,-14.14875984,-16.32921982
8.685466581,15.00419426,-14.14875984,-16.32921982
8.695466581,15.00419426,-14.14875984,-16.32921982
8.705466581,8.294719696,-13.88076401,-14.53938866
8.715466581,8.021938324,-14.16311741,-11.95514011
8.725466581,9.888339996,-15.63230991,-9.997811317
8.735466581,12.51565838,-17.29771423,-9.433105469
8.745466581,14.20977688,-18.47019768,-9.988240242
8.755466581,14.20977688,-18.47019768,-9.988240242
8.765466581,14.20977688,-18.47019768,-9.988240242
8.775466581,14.20977688,-18.47019768,-9.988240242
8.785466581,13.7599268,-27.16093063,-5.690730572
8.795466581,13.40578842,-30.11845779,-4.800600529
8.805466581,12.32901859,-33.3439827,-4.867599487
8.815466581,12.32901859,-33.3439827,-4.867599487
8.825466581,8.471788406,-45.12145615,1.363310695
8.835466581,8.59142971,-46.76293182,7.240083218
8.845466581,10.40040398,-45.99244308,13.94477177
8.855466581,15.04247952,-44.19782639,20.91267204
8.865466581,21.19203377,-42.47499466,24.99482727
8.875466581,26.02075005,-40.0199585,25.88017082
8.885466581,26.02075005,-40.0199585,25.88017082
8.895466581,33.50071335,-35.72245026,15.13161182
8.905466581,34.56312561,-35.22952652,11.62373447
8.915466581,35.27140045,-35.00938797,10.27418232
8.925466581,36.91287994,-34.94717407,11.53280735
8.935466581,38.15714645,-35.27259827,13.78684616
8.945466581,34.68755341,-34.88974762,18.34278107
8.955466581,30.97389221,-35.04767227,19.941185
8.965466581,30.97389221,-35.04767227,19.941185
8.975466581,21.44088745,-32.9037056,22.28136635
8.985466581,16.79402542,-29.74039268,22.89871407
8.995466581,13.1712923,-25.86880493,22.67378998
9.005466581,11.76431274,-23.41376877,21.68794632
9.015466581,9.878767967,-21.1836586,16.90230179
9.025466581,8.457431793,-19.06361771,14.03091335
9.035466581,7.088737011,-17.35514259,11.32702446
9.045466581,5.576473236,-15.91466331,9.116056442
9.055466581,3.992424488,-14.44068432,7.579864025
9.065466581,2.6620152,-13.23470211,6.321238995
9.075466581,2.6620152,-13.23470211,6.321238995
9.085466581,-1.353141189,-13.80897903,7.173084259
9.095466581,-4.138386726,-13.12941742,8.81456089
9.105466581,-6.966702938,-11.48794174,10.19282627
9.115466581,-8.995817184,-9.822537422,11.40359497
9.125466581,-9.474381447,-8.807980537,12.85843086
9.135466581,-8.124829292,-8.827122688,14.73440361
9.145466581,-8.124829292,-8.827122688,14.73440361
9.155466581,-8.124829292,-8.827122688,14.73440361
9.165466581,-8.124829292,-8.827122688,14.73440361
9.175466581,1.211964726,-8.654839516,34.20719528
9.185466581,2.523231506,-8.506484032,39.83989716
9.195466581,4.719842434,-8.358129501,41.74937057
9.205466581,4.719842434,-8.358129501,41.74937057
9.215466581,15.92782402,-10.12881851,34.4608345
9.225466581,17.54537201,-12.4929266,33.69034576
9.235466581,16.13839149,-15.12503147,35.60939026
9.245466581,15.2291193,-20.91087723,39.75375748
9.255466581,14.52084446,-30.77409172,41.42873383
9.265466581,14.52084446,-30.77409172,41.42873383
9.275466581,4.250849247,-61.21557999,27.45943451
9.285466581,0.699900627,-69.93024445,22.08036995
9.295466581,-2.080559254,-79.35796356,20.33360863
9.305466581,-2.669193745,-89.95816803,22.60679054
9.315466581,-2.611765862,-102.3673477,25.35375023
9.325466581,-2.851048231,-113.4461136,24.86561394
9.335466581,-1.310070395,-119.6100235,5.885745525
9.345466581,1.920240164,-112.2784195,-3.221337557
9.355466581,6.787241459,-100.5153046,-7.561917782
9.365466581,10.31426239,-87.39305878,-10.67258739
9.375466581,15.98046589,-77.09913635,-15.692729
9.385466581,19.60798454,-70.44709015,-22.69412804
9.395466581,19.60798454,-70.44709015,-22.69412804
9.405466581,20.35454559,-49.99324417,-29.25524712
9.415466581,21.25424767,-47.55735016,-26.36950302
9.425466581,21.99123573,-46.94000244,-24.00060844
9.435466581,21.99123573,-46.94000244,-24.00060844
9.445466581,18.24407578,-43.85326004,-24.6849575
9.455466581,13.53978729,-40.46023941,-24.14896393
9.465466581,8.404789925,-35.1385994,-16.68335724
9.475466581,8.69192791,-34.25325775,-11.31864929
9.485466581,8.586644173,-35.10510254,-7.705487251
9.495466581,6.409175396,-32.53999329,-5.839085579
9.505466581,6.131608009,-27.71127892,-6.116652966
9.515466581,8.112865448,-25.58166695,-7.882555962
9.525466581,8.112865448,-25.58166695,-7.882555962
9.535466581,15.63111401,-21.32244301,-12.67298698
9.545466581,16.24846268,-18.26441574,-12.39541912
9.555466581,16.85145378,-16.40279961,-11.25643635
9.565466581,19.18684769,-17.78106499,-11.42871952
9.575466581,20.7948246,-19.82932091,-13.05583858
9.585466581,20.44068718,-21.93500519,-14.93659687
9.595466581,20.44068718,-21.93500519,-14.93659687
9.605466581,20.44068718,-21.93500519,-14.93659687
9.615466581,20.44068718,-21.93500519,-14.93659687
9.625466581,5.964110374,-26.32344246,-0.455234498
9.635466581,5.638686657,-25.65823746,2.736790895
9.645466581,5.404190063,-24.62932396,5.182255745
9.655466581,5.404190063,-24.62932396,5.182255745
9.665466581,5.404190063,-24.62932396,5.182255745
9.675466581,7.576872826,-22.30828476,2.05722928
9.685466581,8.873783112,-22.56192398,1.353739381
9.695466581,10.21376324,-22.85384941,1.540379524
9.705466581,11.56331539,-23.5429821,2.41136694
9.715466581,13.87478256,-26.36172676,6.732804775
9.725466581,14.69791317,-27.28057098,10.59482002
9.735466581,15.37747478,-26.98864746,15.17468262
9.745466581,17.08595085,-25.91187668,19.0127697
9.755466581,19.68455505,-25.09353065,21.1710968
9.765466581,22.13002014,-24.17468643,21.28116608
9.775466581,23.96770859,-23.30848503,19.42433548
9.785466581,23.96770859,-23.30848503,19.42433548
9.795466581,23.96770859,-23.30848503,19.42433548
9.805466581,31.73002434,-25.67259407,14.17926884
9.815466581,31.73002434,-25.67259407,14.17926884
9.825466581,30.79203796,-26.45743942,17.00758553
9.835466581,28.39443016,-26.09851646,19.05584145
9.845466581,21.79023933,-24.62453842,20.99881363
9.855466581,17.66501236,-22.42792702,20.41496468
9.865466581,14.24806213,-20.0925312,18.88834381
9.875466581,10.84546852,-17.37907028,16.99801445
9.875466581,14.24806213,-20.0925312,18.88834381
9.895466581,6.5288167,-11.53101254,15.39482307
9.905466581,6.418746948,-9.46361351,15.88295841
9.915466581,6.418746948,-9.46361351,15.88295841
9.925466581,6.418746948,-9.46361351,15.88295841
9.935466581,6.418746948,-9.46361351,15.88295841
9.945466581,6.418746948,-9.46361351,15.88295841
9.955466581,7.878368378,-6.960721016,10.99202919
9.965466581,8.122436523,-6.793223381,10.26461124
9.975466581,8.122436523,-6.793223381,10.26461124
9.985466581,8.596215248,-8.74576664,4.952544689
9.995466581,8.132007599,-10.23888779,3.392424345
10.00546658,5.787041664,-10.73659515,2.789433002
10.01546658,2.283949137,-9.927821159,3.392424345
10.02546658,-1.420140266,-8.95154953,5.072185993
10.03546658,-4.267599106,-8.396414757,7.153941631
10.04546658,-4.267599106,-8.396414757,7.153941631
10.05546658,-5.607579708,-9.6693964,11.95394325
10.06546658,-6.148357868,-9.243474007,14.79183102
10.07546658,-6.803991318,-8.248059273,18.19921112
10.08546658,-8.124829292,-6.812366009,22.59243393
10.09546658,-9.373882294,-4.457828522,27.21536636
10.10546658,-5.21994257,-1.098305583,34.69054413
10.11546658,0.752542734,-1.308874011,37.40879059
10.12546658,7.864011765,-1.792224169,38.89712524
10.13546658,14.42513084,-2.835494757,39.45704651
10.14546658,18.53600121,-3.381058455,40.52424622
10.15546658,20.86660957,-4.831109047,41.95993805
10.16546658,20.86660957,-4.831109047,41.95993805
10.17546658,20.86660957,-4.831109047,41.95993805
10.18546658,15.80339718,-43.89154434,40.34239197
10.19546658,15.80339718,-43.89154434,40.34239197
10.20546658,-0.300299227,-78.74061584,42.85964203
10.21546658,-7.828119278,-96.4187851,46.04688263
10.22546658,-14.01117325,-113.7619705,39.89732742
10.23546658,-13.41296768,-131.0955811,19.70668983
10.24546658,-11.02014446,-129.061676,12.67657661
10.25546658,-10.97228813,-115.6714401,4.631906509
10.26546658,-5.545366287,-98.06983948,-5.398806095
10.27546658,7.213163853,-80.54959106,-13.04148197
10.28546658,18.64607048,-66.96792603,-13.12283802
10.29546658,31.66781044,-56.96114349,-10.11266708
10.30546658,32.85943604,-52.79284668,-11.28993511
10.31546658,32.56751251,-50.86901474,-15.07538128
10.32546658,30.05504799,-51.75914764,-22.11506462
10.33546658,30.05504799,-51.75914764,-22.11506462
10.34546658,30.05504799,-51.75914764,-22.11506462
10.35546658,9.304491043,-36.88536072,-18.62154388
10.36546658,9.304491043,-36.88536072,-18.62154388
10.37546658,9.304491043,-36.88536072,-18.62154388
10.38546658,15.89910984,-29.35275459,2.526222467
10.39546658,17.68415642,-29.78346252,-1.311864972
10.40546658,18.09572029,-27.85484886,-3.738187075
10.41546658,18.8374958,-23.5429821,-4.154538155
10.42546658,23.36950302,-16.04387665,-7.10249567
10.43546658,25.70489693,-14.39282799,-10.70608711
10.44546658,26.83909607,-12.65563869,-13.38126278
10.45546658,26.05424881,-10.69352436,-14.69252968
10.46546658,26.08296394,-11.70329571,-14.50588894
10.47546658,25.21676064,-13.72762394,-12.5246315
10.48546658,22.09173584,-13.41177082,-8.112266541
10.49546658,16.06182289,-10.18146038,0.166899383
10.50546658,15.13340664,-7.822137356,3.425923824
10.51546658,15.13340664,-7.822137356,3.425923824
10.52546658,17.0428791,-6.989434719,5.330610752
10.53546658,17.0428791,-6.989434719,5.330610752
10.54546658,15.90389538,-7.252645493,4.095914364
10.55546658,15.90389538,-7.252645493,4.095914364
10.56546658,8.175078392,-4.677968502,1.191027522
10.57546658,6.51445961,-4.151547432,1.320239902
10.58546658,5.112265587,-4.046263218,2.253440619
10.59546658,4.169493675,-4.366901398,4.555335999
10.60546658,3.18843627,-5.233103275,8.072785378
10.61546658,2.312663078,-6.022734642,11.70509052
10.62546658,1.154536963,-5.797809124,13.03071404
10.63546658,1.154536963,-5.797809124,13.03071404
10.64546658,1.154536963,-5.797809124,13.03071404
10.65546658,2.786442041,-6.563512325,0.870389223
10.66546658,4.198207378,-7.664210796,-1.642074585
10.67546658,6.203392506,-9.047262192,-2.436491728
10.68546658,6.203392506,-9.047262192,-2.436491728
10.69546658,6.203392506,-9.047262192,-2.436491728
10.70546658,10.87896824,-13.48834133,3.162713289
10.71546658,11.26181984,-14.69910908,4.205984116
10.72546658,12.17109203,-15.97687721,5.507679462
10.73546658,13.88913918,-17.41735649,7.07737112
10.74546658,13.88913918,-17.41735649,7.07737112
10.75546658,19.16292,-18.45584106,9.786046028
10.76546658,20.90968132,-18.27398682,10.36989498
10.77546658,20.90968132,-18.27398682,10.36989498
10.78546658,25.46082878,-17.7332077,12.72443295
10.79546658,28.96870804,-16.99621964,14.99282837
10.80546658,32.11287689,-15.87159252,15.73938942
10.81546658,36.28595734,-14.28754425,13.26521015
10.82546658,37.73122406,-14.49811268,12.54736328
10.83546658,38.2002182,-15.28774357,13.68634701
10.84546658,38.2002182,-15.28774357,13.68634701
10.85546658,34.27120209,-14.31147194,20.15175438
10.86546658,31.97887802,-13.53619766,22.24308014
10.87546658,31.97887802,-13.53619766,22.24308014
10.88546658,25.76232529,-9.784252167,18.0077858
10.89546658,24.07777786,-9.1860466,14.53340626
10.90546658,21.73281097,-8.142775536,11.97308636
10.91546658,19.25384712,-7.41535759,10.86281681
10.92546658,16.99502373,-7.511070251,10.93460083
10.93546658,14.65962791,-7.276573658,11.8343029
10.94546658,10.13240719,-4.725824833,14.42812252
10.95546658,9.759127617,-4.534399033,14.66261864
10.96546658,9.677771568,-5.998806477,12.85364532
10.97546658,7.945367813,-7.223931789,10.83410263
10.98546658,5.815755367,-8.042277336,9.920044899
10.99546658,3.504288673,-8.042277336,9.168698311
11.00546658,0.900897741,-8.362915039,7.240083218
11.01546658,1.556531072,-9.329615593,6.273382664
11.02546658,2.647658348,-10.65523911,5.904888153
11.03546658,2.590230465,-12.48814106,6.000600815
11.04546658,2.590230465,-12.48814106,6.000600815
11.05546658,-0.979860902,-14.05304718,8.09671402
11.06546658,-0.979860902,-14.05304718,8.09671402
11.07546658,-11.43171024,-13.44527054,18.70648956
11.08546658,-14.36052513,-10.68395329,26.76551628
11.09546658,-14.36052513,-10.68395329,26.76551628
11.10546658,-12.2356987,-14.07219028,53.12963486
11.11546658,-11.64706421,-12.95234871,61.25566101
11.12546658,-9.048459053,-11.26780224,61.19344711
11.13546658,7.677371502,-11.64586735,49.25326157
11.14546658,7.677371502,-11.64586735,49.25326157
11.15546658,7.677371502,-11.64586735,49.25326157
11.16546658,7.677371502,-11.64586735,49.25326157
11.17546658,24.2069912,-22.02114677,36.75315857
11.18546658,20.15354919,-29.56332397,36.24588013
11.19546658,20.15354919,-29.56332397,36.24588013
11.20546658,20.15354919,-29.56332397,36.24588013
11.21546658,-5.033302307,-95.20802307,45.13282394
11.22546658,-7.555337429,-111.7376404,49.69832993
11.23546658,-2.970689297,-130.7031555,42.52943039
11.24546658,4.600201607,-140.8870087,23.11406898
11.25546658,7.816154957,-139.7815247,4.976472855
11.26546658,11.01296616,-112.2975616,-0.996012449
11.27546658,12.91765308,-98.77332306,3.583850145
11.28546658,13.98485184,-86.46942902,2.248655081
11.29546658,14.51127338,-73.50511932,-5.561518192
11.30546658,18.55992889,-66.53243256,-15.89372635
11.31546658,23.20200539,-66.20700836,-24.57488632
11.32546658,22.11566353,-57.43013763,-24.62752914
11.33546658,20.10090637,-52.79763031,-18.18605042
11.34546658,19.27298927,-49.26582718,-11.8211422
11.35546658,19.43091583,-46.82993317,-8.203194618
11.36546658,21.20160484,-47.30849838,-10.4093771
11.37546658,21.5844574,-48.19384003,-15.7118721
11.38546658,17.28694725,-45.56652069,-19.39681816
11.39546658,17.28694725,-45.56652069,-19.39681816
11.40546658,17.28694725,-45.56652069,-19.39681816
11.41546658,17.28694725,-45.56652069,-19.39681816
11.42546658,16.07139397,-27.33321381,-0.393021107
11.43546658,19.30170441,-24.97867584,-1.244866014
11.44546658,22.62772751,-22.19821548,-3.384049416
11.45546658,22.62772751,-22.19821548,-3.384049416
11.46546658,25.03012085,-20.81037903,-15.9750824
11.47546658,25.03012085,-20.81037903,-15.9750824
11.48546658,24.47498703,-22.22692871,-17.47777557
11.49546658,19.22991943,-19.47039795,-12.2614212
11.50546658,15.5545435,-17.44128418,-4.963312149
11.51546658,16.14317703,-17.74278069,0.851246655
11.52546658,17.105093,-18.46541214,5.498108387
11.53546658,17.105093,-18.46541214,5.498108387
11.54546658,17.105093,-18.46541214,5.498108387
11.55546658,14.29113293,-18.86740685,0.482751966
11.56546658,13.4345026,-19.36511421,0.899103105
11.57546658,12.97029495,-19.09711838,2.688934565
11.58546658,12.97029495,-19.09711838,2.688934565
11.59546658,12.97029495,-19.09711838,2.688934565
11.60546658,12.97029495,-19.09711838,2.688934565
11.61546658,12.97029495,-19.09711838,2.688934565
11.62546658,21.04846382,-18.72862244,2.143370867
11.63546658,23.63271332,-19.54218292,2.37786746
11.64546658,23.63271332,-19.54218292,2.37786746
11.65546658,23.63271332,-19.54218292,2.37786746
11.66546658,29.17927551,-23.65305138,13.98305702
11.67546658,28.87299538,-22.29871368,15.90688705
11.68546658,28.48057175,-20.99701881,14.90190125
11.69546658,28.48057175,-20.99701881,14.90190125
11.70546658,27.92543602,-21.96850395,11.42752266
11.71546658,27.92543602,-21.96850395,11.42752266
11.72546658,27.92543602,-21.96850395,11.42752266
11.73546658,23.95335197,-23.92583275,22.72164536
11.74546658,22.1252346,-22.74378014,24.40140724
11.75546658,20.80918121,-21.35115623,24.08076859
11.76546658,20.33540344,-20.75295067,21.50130653
11.77546658,20.33540344,-20.75295067,21.50130653
11.78546658,16.41117477,-19.25982857,13.51884937
11.79546658,14.23849106,-18.67119598,13.11685562
11.80546658,11.61595726,-17.84806442,13.09771252
11.81546658,8.62014389,-16.7282238,13.12164116
11.82546658,6.370890141,-16.9292202,13.22213936
11.83546658,3.580859184,-16.55115509,12.71007538
11.84546658,-2.755335331,-13.57448292,14.25105381
11.85546658,-2.755335331,-13.57448292,14.25105381
11.86546658,-5.971288681,-8.080561638,16.96929932
11.87546658,-5.531009674,-6.620940208,15.36610889
11.88546658,-5.109872818,-5.773880959,12.30329609
11.89546658,-4.880161762,-4.835894585,9.407979965
11.90546658,-4.880161762,-4.835894585,9.407979965
11.91546658,-5.023731232,-3.299702406,6.187241077
11.92546658,-5.215157032,-3.199203968,7.211369038
11.93546658,-4.70787859,-3.687339783,8.556135178
11.94546658,-3.750749588,-4.658825874,9.795618057
11.95546658,-3.516252756,-5.539384365,10.74796104
11.96546658,-4.339384079,-5.759523869,11.50409317
11.97546658,-9.067601204,-7.41535759,16.69651794
11.98546658,-9.067601204,-7.41535759,16.69651794
11.99546658,-9.067601204,-7.41535759,16.69651794
12.00546658,-21.42892265,-5.644668579,27.73221588
12.01546658,-22.66362,-5.391029358,28.63191795
12.02546658,-20.88814545,-6.520441532,29.52204704
12.03546658,-20.88814545,-6.520441532,29.52204704
12.04546658,-20.88814545,-6.520441532,29.52204704
12.05546658,-5.54058075,-7.070790768,39.79682922
12.06546658,-0.472582459,-6.965506554,41.48616028
12.07546658,4.159922123,-6.989434719,41.99822617
12.08546658,6.543173313,-7.018148899,42.20879364
12.09546658,5.547759533,-10.4350996,43.94598389
12.10546658,5.547759533,-10.4350996,43.94598389
12.11546658,-0.482153773,-18.90569115,48.655056
12.12546658,-1.362712502,-26.36172676,51.85665512
12.13546658,-0.108873427,-36.2297287,55.02474976
12.14546658,4.356133461,-50.40959549,54.43133163
12.15546658,8.773283958,-66.09693909,49.29633331
12.16546658,8.773283958,-66.09693909,49.29633331
12.17546658,8.773283958,-66.09693909,49.29633331
12.18546658,9.189635277,-146.625,29.35454941
12.19546658,9.189635277,-146.625,29.35454941
12.20546658,5.724828243,-156.7801361,9.819545746
12.21546658,9.443274498,-156.7801361,7.474579811
12.22546658,9.443274498,-156.7801361,7.474579811
12.23546658,34.8741951,-100.7019424,-10.89751244
12.24546658,35.54418564,-81.88478088,-17.0422802
12.25546658,39.51626968,-74.0171814,-19.5021019
12.26546658,40.90889359,-71.1792984,-16.64507294
12.27546658,38.50650024,-67.50392151,-12.43848991
12.28546658,36.09931946,-62.93841553,-10.21316528
12.29546658,34.89812088,-57.42535019,-12.78305721
12.30546658,31.84488106,-52.05107117,-15.51566029
12.31546658,27.26501846,-48.50012207,-18.32483482
12.32546658,20.47897339,-44.33660889,-17.78884125
12.33546658,13.09950733,-37.35913849,-11.74457169
12.34546658,9.964909554,-31.36272621,-2.747558594
12.35546658,9.964909554,-31.36272621,-2.747558594
12.36546658,9.964909554,-31.36272621,-2.747558594
12.37546658,28.22693253,-28.07498741,-3.053839922
12.38546658,27.44208717,-23.83012009,-10.52423191
12.39546658,25.92025185,-19.47518349,-16.04686737
12.40546658,28.04507828,-19.16411591,-19.79402733
12.41546658,29.5286274,-18.71426582,-21.16272163
12.42546658,23.90549469,-15.04367638,-18.6359005
12.43546658,20.44547272,-14.99581909,-15.13280869
12.44546658,17.83729553,-15.89073563,-11.24686432
12.45546658,16.04267883,-15.90509224,-7.284350395
12.46546658,15.20997715,-16.26880074,-3.790829182
12.47546658,14.79841137,-17.58006859,1.248455167
12.48546658,14.12363529,-18.06820297,5.569892883
12.49546658,13.01815128,-16.828722,6.756732941
12.50546658,12.32423306,-15.93380642,7.469794273
12.51546658,12.72622681,-15.00060558,7.948358536
12.52546658,13.46800232,-13.96212006,7.493722439
12.53546658,14.52563,-12.90927792,7.374081135
12.54546658,15.97568035,-12.83270741,7.900502205
12.55546658,15.97568035,-12.83270741,7.900502205
12.56546658,15.97568035,-12.83270741,7.900502205
12.57546658,15.97568035,-12.83270741,7.900502205
12.58546658,20.99103737,-15.2973156,16.84008789
12.59546658,20.99103737,-15.2973156,16.84008789
12.60546658,23.30728912,-15.14417458,22.74557304
12.61546658,28.15993309,-13.89033508,22.27658081
12.62546658,28.15993309,-13.89033508,22.27658081
12.63546658,31.97409248,-12.62692547,17.13201141
12.64546658,32.29951477,-12.8757782,16.17966843
12.65546658,31.74916649,-14.38804245,17.40958023
12.66546658,29.19363213,-14.05783272,19.50090599
12.67546658,29.19363213,-14.05783272,19.50090599
12.68546658,23.22593307,-12.80877972,22.39143562
12.69546658,22.19223404,-11.85165024,20.91267204
12.70546658,21.6849556,-11.09551907,17.95035744
12.71546658,20.88096619,-10.75095177,14.13619804
12.72546658,19.45484543,-10.22931671,10.81974602
12.73546658,17.69372749,-9.391828537,8.474779129
12.74546658,13.3340044,-9.018548965,6.589235306
12.75546658,11.1948204,-9.64068222,6.704091072
12.76546658,8.601000786,-10.13838959,7.168298244
12.77546658,5.471189022,-9.664610863,8.09671402
12.78546658,2.441875458,-8.463413239,9.149555206
12.79546658,0.230907381,-7.319644451,9.78126049
12.80546658,-2.88454771,-3.299702406,12.0352993
12.81546658,-3.257827997,-1.538584948,12.48515034
12.82546658,-3.066402197,-0.696311414,12.06879902
12.83546658,-3.095116138,-0.404387027,10.54217815
12.84546658,-3.994817495,0.189032987,8.938986778
12.85546658,-5.243870735,1.299302697,7.41236639
12.86546658,-6.306283951,2.414358139,5.986244202
12.87546658,-5.607579708,2.275574446,4.354339123
12.88546658,-4.72223568,0.973878801,4.129413605
12.89546658,-4.214957237,-0.155533478,4.588835716
12.90546658,-3.71724987,-0.581455886,5.531607628
12.91546658,-3.281756163,-0.854237676,7.225726128
12.92546658,-2.516052961,-1.299302697,9.819545746
12.93546658,-2.516052961,-1.299302697,9.819545746
12.94546658,-2.516052961,-1.299302697,9.819545746
12.95546658,-2.516052961,-1.299302697,9.819545746
12.96546658,-4.669593334,4.52482748,17.22293854
12.97546658,-6.981060028,4.66839695,21.10409737
12.98546658,-9.66580677,3.098705292,29.47419167
12.99546658,-13.6666069,1.864008784,38.97848129
13.00546658,-13.6666069,1.864008784,38.97848129
13.01546658,-19.36631012,-1.931007862,64.0169754
13.02546658,-15.92064571,-3.682554007,64.83053589
13.03546658,-8.780462265,-6.238088608,61.30351639
13.04546658,-0.764506817,-9.133403778,58.01099396
13.05546658,5.638686657,-12.43071365,54.19683456
13.06546658,8.854640007,-21.74357986,46.47280502
13.07546658,8.797212601,-30.50609589,41.86422729
13.08546658,7.112665176,-41.29772568,36.93022537
13.09546658,3.26979208,-52.19464111,35.39403534
13.10546658,-2.018345833,-67.13063812,37.53321838
13.11546658,-10.15394306,-89.76673889,40.80659866
13.12546658,-20.63450623,-126.9368515,38.18406677
13.13546658,-15.0161581,-138.7573853,37.97349548
13.14546658,0.719043195,-150.0945892,40.93581009
13.15546658,0.719043195,-150.0945892,40.93581009
13.16546658,25.68096924,-134.5843048,30.81895828
13.17546658,25.68096924,-134.5843048,30.81895828
13.18546658,17.98565102,-93.63832855,-6.011368752
13.19546658,17.98565102,-93.63832855,-6.011368752
13.20546658,17.98565102,-93.63832855,-6.011368752
13.21546658,17.98565102,-93.63832855,-6.011368752
13.22546658,17.98565102,-93.63832855,-6.011368752
13.23546658,32.35215759,-56.30551147,-5.269593716
13.24546658,31.17967606,-57.51149368,-4.920241356
13.25546658,31.17967606,-57.51149368,-4.920241356
13.26546658,23.66142654,-49.42853546,-17.49691772
13.27546658,18.8614254,-46.02594376,-19.12403679
13.28546658,11.7834549,-40.18267059,-15.0466671
13.29546658,7.418946743,-33.43490982,-5.925227165
13.30546658,8.773283958,-28.80240631,5.182255745
13.31546658,14.78884029,-29.02733231,13.30828094
13.32546658,21.68017006,-26.68236542,10.83410263
13.33546658,23.0919342,-25.55773926,4.368695736
13.34546658,21.96730804,-23.41855431,-2.867199659
13.35546658,23.12543488,-22.13600159,-7.43749094
13.36546658,26.00639343,-23.4807682,-9.040681839
13.37546658,26.00639343,-23.4807682,-9.040681839
13.38546658,26.00639343,-23.4807682,-9.040681839
13.39546658,26.00639343,-23.4807682,-9.040681839
13.40546658,26.00639343,-23.4807682,-9.040681839
13.41546658,24.2069912,-23.01656151,6.421737671
13.42546658,22.23051834,-23.67219353,4.971687317
13.43546658,19.59362793,-24.39961243,3.186641455
13.44546658,17.10987854,-25.06960297,2.851646423
13.45546658,13.53978729,-24.85424805,7.010372162
13.46546658,12.87458229,-24.13161659,10.36032391
13.47546658,12.87458229,-24.13161659,10.36032391
13.48546658,12.03709412,-22.58106804,15.17946911
13.49546658,11.54895878,-21.60479546,16.23231125
13.50546658,11.6207428,-21.08794594,17.03629875
13.51546658,11.6207428,-21.08794594,17.03629875
13.52546658,11.6207428,-21.08794594,17.03629875
13.53546658,11.27617645,-21.26980019,24.14298248
13.54546658,11.39581776,-19.50389671,27.77050209
13.55546658,12.49173069,-17.35514259,31.14438057
13.56546658,14.23370552,-15.15853119,32.59443283
13.57546658,14.23370552,-15.15853119,32.59443283
13.58546658,14.23370552,-15.15853119,32.59443283
13.59546658,19.00499344,-9.554540634,24.76990128
13.60546658,19.00499344,-9.554540634,24.76990128
13.61546658,19.78026772,-9.104690552,24.09991074
13.62546658,19.97169495,-8.870193481,23.6931324
13.63546658,19.78505325,-8.74576664,22.10429764
13.64546658,17.78465462,-8.214560509,17.09851265
13.65546658,16.50688744,-7.89870739,15.25603867
13.66546658,14.78884029,-7.807780266,13.37528038
13.67546658,14.78884029,-7.807780266,13.37528038
13.68546658,9.098708153,-6.707081795,9.340981483
13.69546658,7.136593342,-6.884150982,7.52722168
13.70546658,7.136593342,-6.884150982,7.52722168
13.71546658,-0.80757767,-5.481956482,8.321639061
13.72546658,-2.27677083,-5.06560564,10.51825047
13.73546658,-3.004188776,-4.223331928,12.7005043
13.74546658,-3.085544825,-4.223331928,14.22712517
13.75546658,-3.559323788,-4.189832687,14.15055466
13.76546658,-3.865604877,-3.448057413,12.05444241
13.77546658,-3.865604877,-3.448057413,12.05444241
13.78546658,-1.252642632,-1.911865234,3.397209883
13.79546658,0.513260484,-2.170290232,2.387438774
13.80546658,1.9585253,-2.730210543,2.382653236
13.81546658,2.293520451,-3.232703447,3.196212769
13.82546658,2.293520451,-3.232703447,3.196212769
13.83546658,2.293520451,-3.232703447,3.196212769
13.84546658,2.293520451,-3.232703447,3.196212769
13.85546658,2.293520451,-3.232703447,3.196212769
13.86546658,-8.000402451,-5.347958565,13.76291752
13.87546658,-11.11585712,-4.084548473,16.30888176
13.88546658,-13.55653667,-1.591227055,19.47219276
13.89546658,-14.73859119,0.658026218,22.42493629
13.90546658,-14.73859119,0.658026218,22.42493629
13.91546658,-13.00618744,4.486542225,28.91905594
13.92546658,-11.6327076,4.826323509,31.78565788
13.93546658,-9.938589096,4.472185612,34.95854187
13.94546658,-8.823533058,3.830909014,38.38027573
13.95546658,-8.124829292,2.931207657,41.18466568
13.96546658,-5.698507309,-0.739382207,42.67778778
13.97546658,-3.803391695,-3.290131092,42.68735886
13.98546658,-0.783649445,-6.74536705,42.42893219
13.99546658,1.728814363,-10.49252701,41.96950912
14.00546658,3.992424488,-15.27338696,41.05066681
14.01546658,7.385447025,-22.66720963,38.76791382
14.02546658,7.385447025,-22.66720963,38.76791382
14.03546658,7.385447025,-22.66720963,38.76791382
14.04546658,7.385447025,-22.66720963,38.76791382
14.05546658,7.385447025,-22.66720963,38.76791382
14.06546658,-8.890532494,-102.6879807,31.6995163
14.07546658,-10.2592268,-113.197258,30.53181839
14.08546658,-1.386640668,-126.0275726,29.35933495
14.09546658,-1.386640668,-126.0275726,29.35933495
14.10546658,-1.386640668,-126.0275726,29.35933495
14.11546658,20.79003906,-84.50253296,-7.241279602
14.12546658,26.02553558,-70.53801727,-18.26262093
14.13546658,32.35215759,-58.99982834,-20.60758591
14.14546658,38.70749664,-54.97510147,-22.60798645
14.15546658,29.49512863,-50.14159775,-20.58365822
14.16546658,22.80958176,-46.91607285,-16.55893135
14.17546658,18.60778618,-43.0827713,-12.18485069
14.18546658,18.3972168,-40.55116653,-7.351349354
14.19546658,20.23011971,-38.23491287,-3.053839922
14.20546658,21.07717896,-35.1385994,-2.072782516
14.21546658,20.30669022,-31.80300522,-4.255036831
14.22546658,16.49253082,-26.18944359,-9.275178909
14.23546658,16.49253082,-26.18944359,-9.275178909
14.24546658,12.51087284,-19.0253334,-5.178666592
14.25546658,13.48235893,-17.37428474,-1.297508121
14.26546658,16.26281929,-16.44586945,1.99501586
14.27546658,16.26281929,-16.44586945,1.99501586
14.28546658,16.26281929,-16.44586945,1.99501586
14.29546658,16.26281929,-16.44586945,1.99501586
14.30546658,16.26281929,-16.44586945,1.99501586
14.31546658,22.51765823,-11.96172047,-12.75912857
14.32546658,22.51765823,-11.96172047,-12.75912857
14.33546658,23.80499649,-18.36969948,-11.89771271
14.34546658,21.23510361,-19.84367752,-7.370491982
14.35546658,17.84686852,-19.50389671,1.320239902
14.36546658,17.88036728,-20.97309113,4.981258392
14.37546658,17.88036728,-20.97309113,4.981258392
14.38546658,17.79422569,-22.98306084,8.182855606
14.39546658,16.68395615,-22.01636124,8.455636978
14.40546658,16.54995728,-21.53779602,8.326424599
14.41546658,16.54995728,-21.53779602,8.326424599
14.42546658,16.54995728,-21.53779602,8.326424599
14.43546658,16.54995728,-21.53779602,8.326424599
14.44546658,19.28256035,-22.28914261,13.38006592
14.45546658,20.07697868,-22.39442635,15.41396523
14.46546658,21.43131638,-22.46621132,17.96471405
14.47546658,23.3790741,-22.52363968,20.03211212
14.48546658,28.23171806,-22.46142578,21.18066788
14.49546658,30.97389221,-22.63370895,20.56332016
14.50546658,30.97389221,-22.63370895,20.56332016
14.51546658,30.97389221,-22.63370895,20.56332016
14.52546658,33.29014587,-24.09811592,23.86063004
14.53546658,31.18924713,-24.07897377,27.93799973
14.54546658,25.92982292,-22.74856567,34.32204819
14.55546658,23.73321152,-20.90609169,33.99662781
14.56546658,22.30230331,-19.52304077,31.03909683
14.57546658,21.25424767,-18.55633926,26.71287346
14.58546658,19.53141403,-17.66142464,22.53979111
14.59546658,16.97587967,-16.87657738,19.32383728
14.60546658,10.57268715,-15.08196068,16.20359612
14.61546658,7.423732281,-14.49811268,15.31346703
14.62546658,3.537788391,-13.20598793,14.69611835
14.63546658,-0.271585375,-10.49731255,14.21755409
14.64546658,-2.764906645,-7.941778183,13.26042461
14.65546658,-3.865604877,-6.329015732,11.97787189
14.66546658,-4.626522541,-4.917250633,11.23131084
14.67546658,-4.626522541,-4.917250633,11.23131084
14.68546658,-4.626522541,-4.917250633,11.23131084
14.69546658,-5.693721294,-2.758924484,9.125627518
14.70546658,-5.693721294,-2.758924484,9.125627518
14.71546658,-4.688735962,-0.064606212,7.388438225
14.72546658,-3.032902718,0.342173636,5.813961029
14.73546658,-3.032902718,0.342173636,5.813961029
14.74546658,0.494117886,0.011964113,1.645663738
14.75546658,1.068395257,-0.332602352,1.827518344
14.76546658,1.30289197,-1.256231904,2.310868502
14.77546658,0.604187727,-2.677568436,3.215355396
14.78546658,-1.324427366,-3.73998189,4.287340164
14.79546658,-3.86081934,-4.601397991,7.048657417
14.80546658,-9.038887978,-4.725824833,13.59541988
14.81546658,-11.37906837,-3.773481369,17.16072655
14.82546658,-13.34118271,-2.634497643,19.90768623
14.83546658,-14.78166199,-1.648654819,22.14736748
14.84546658,-15.30329704,-1.356730461,24.28176689
14.85546658,-15.29372597,-1.040877819,25.64089012
14.86546658,-15.29372597,-1.040877819,25.64089012
14.87546658,-11.82413292,-0.069391854,27.43550682
14.88546658,-11.82413292,-0.069391854,27.43550682
14.89546658,-11.82413292,-0.069391854,27.43550682
14.90546658,1.245464206,-3.031706333,31.86222839
14.91546658,8.5148592,-4.711467743,35.05425262
14.92546658,16.46381569,-5.874379635,39.69633102
14.93546658,16.46381569,-5.874379635,39.69633102
14.94546658,29.92105103,-7.587640762,46.18087769
14.95546658,29.92105103,-7.587640762,46.18087769
14.96546658,24.71905518,-13.3782711,34.89154053
14.97546658,18.2345047,-18.00120544,26.94737053
14.98546658,12.17587757,-23.31805611,23.21935272
14.99546658,3.169293642,-44.04947281,23.6309185
15.00546658,-2.042274237,-57.52106476,24.97568512
15.01546658,-7.947760582,-74.65367126,27.17708206
15.02546658,-16.27956963,-92.1882782,31.42673492
15.03546658,-21.35713768,-109.3448181,31.22573662
15.04546658,-22.44347954,-120.3709412,30.06761169
15.05546658,-22.44347954,-120.3709412,30.06761169
15.06546658,-22.44347954,-120.3709412,30.06761169
15.07546658,-22.44347954,-120.3709412,30.06761169
15.08546658,-22.44347954,-120.3709412,30.06761169
15.09546658,27.9350071,-60.91408539,-18.25783539
15.10546658,34.43870163,-54.85545731,-13.9986105
15.11546658,33.50071335,-50.94079971,-7.494918823
15.12546658,25.8149662,-51.28058243,-5.413163185
15.13546658,25.8149662,-51.28058243,-5.413163185
15.14546658,25.90589523,-48.39962387,-5.532804012
15.15546658,26.61417007,-46.16472626,-5.815157413
15.16546658,24.95355034,-41.47957993,-6.891927242
15.17546658,23.59442711,-38.68476486,-8.184051514
15.18546658,23.59442711,-38.68476486,-8.184051514
15.19546658,6.854240417,-29.59682274,-5.848656654
15.20546658,3.576073408,-24.41875458,1.334596872
15.21546658,5.600401402,-21.13580322,8.42213726
15.22546658,10.68754196,-21.27937126,10.41775131
15.23546658,14.09013653,-20.36052704,7.986643791
15.24546658,15.10947895,-17.32164383,2.909074068
15.25546658,15.10947895,-17.32164383,2.909074068
15.26546658,18.41635895,-9.047262192,-7.9782691
15.27546658,18.60299873,-7.219145775,-9.538389206
15.28546658,21.25424767,-8.913264275,-10.68694401
15.29546658,23.91506577,-11.43051338,-11.58185959
15.30546658,23.89592361,-13.89033508,-12.18485069
15.31546658,23.89592361,-13.89033508,-12.18485069
15.32546658,14.8079834,-13.13420391,-4.604389191
15.33546658,14.6452713,-14.31625748,3.019144058
15.34546658,16.85623932,-19.3507576,5.067399979
15.35546658,15.6741848,-20.40359879,8.690134048
15.36546658,15.0281229,-18.92004776,11.22652531
15.37546658,14.67877007,-17.69013786,13.48056412
15.38546658,14.67877007,-17.69013786,13.48056412
15.39546658,21.94338036,-16.80957985,16.33759499
15.40546658,21.94338036,-16.80957985,16.33759499
15.41546658,26.90130806,-16.4650135,15.15075493
15.42546658,28.55714226,-17.02014732,14.48554993
15.43546658,29.69612503,-18.47976875,14.3371954
15.44546658,29.69612503,-18.47976875,14.3371954
15.45546658,28.54278564,-23.34677124,20.52503395
15.46546658,29.11706161,-23.98804665,25.33460808
15.47546658,29.327631,-22.69592285,29.45983505
15.48546658,29.6674118,-20.65723801,31.47937584
15.49546658,30.38525772,-18.80997849,30.48874855
15.50546658,28.94477844,-17.92463493,22.74078751
15.51546658,26.34617424,-17.78585052,19.93161392
15.52546658,24.39841652,-17.95334816,19.33819389
15.53546658,23.38385963,-18.59462547,19.56790543
15.54546658,22.80479622,-18.13520241,19.34297943
15.55546658,22.44108772,-17.0297184,17.73500252
15.56546658,21.91945267,-15.62752438,15.2033968
15.57546658,19.94297981,-13.51226902,9.742975235
15.58546658,18.78006935,-14.02911949,7.651648521
15.59546658,16.55474281,-15.01017666,6.622735023
15.60546658,16.55474281,-15.01017666,6.622735023
15.61546658,12.17587757,-15.93380642,8.192426682
15.62546658,8.792427063,-14.51725483,10.19282627
15.63546658,8.792427063,-14.51725483,10.19282627
15.64546658,4.46620369,-6.75972414,13.87777328
15.65546658,5.777470112,-6.683153629,12.48993587
15.66546658,5.906682491,-7.295716286,9.628120422
15.67546658,5.279763222,-7.281359196,6.818946362
15.68546658,4.762913704,-7.668996811,4.536193371
15.69546658,3.714857101,-7.635497093,2.770290375
15.70546658,0.029910283,-5.855237007,3.550350666
15.71546658,-1.89391911,-4.721039295,5.723033428
15.72546658,-3.343969584,-3.878765583,8.436494827
15.73546658,-3.43011117,-3.218346357,10.75753212
15.74546658,-2.88454771,-2.998206854,12.21236897
15.75546658,-2.989831924,-3.055634499,12.68136215
15.76546658,-2.989831924,-3.055634499,12.68136215
15.77546658,-2.989831924,-3.055634499,12.68136215
15.78546658,-6.583851337,-0.6867401,13.03549957
15.79546658,-6.641279221,-0.39960137,15.16989708
15.80546658,-6.071787357,-1.615155339,18.49592018
15.81546658,-5.621936798,-3.562912941,23.9324131
15.82546658,-5.210371494,-5.319244862,30.15853882
15.83546658,-2.032702923,-8.257631302,36.81058502
15.84546658,1.393819213,-8.650053978,38.2749939
15.85546658,6.404389858,-8.764909744,38.2510643
15.86546658,12.386446,-8.726624489,36.23630905
15.87546658,17.61715698,-8.118846893,33.50370407
15.88546658,21.15374947,-7.472784996,30.71367264
15.89546658,20.11526299,-8.760123253,24.94218445
15.90546658,16.31067467,-10.36810017,23.26242447
15.91546658,12.39123249,-12.96670628,23.51606369
15.92546658,12.39123249,-12.96670628,23.51606369
15.93546658,12.39123249,-12.96670628,23.51606369
15.94546658,6.547959328,-33.55933762,29.32105064
15.95546658,6.547959328,-33.55933762,29.32105064
15.96546658,6.547959328,-33.55933762,29.32105064
15.97546658,2.121237278,-76.70671844,25.45424843
15.98546658,2.121237278,-76.70671844,25.45424843
15.99546658,3.427718401,-98.69197083,25.2628231
16.00546658,3.274577856,-107.6124115,21.50609207
16.01546658,3.714857101,-111.8812103,18.27099609
16.02546658,13.42971706,-108.1771164,11.49452209
16.03546658,12.13280678,-97.72527313,6.35952425
16.04546658,11.06082249,-87.71848297,-8.648259163
16.05546658,13.09950733,-71.06443787,-20.51665878
16.06546658,18.28236198,-58.24369431,-20.20080757
16.07546658,25.24547577,-52.9459877,-10.68215847
16.08546658,30.72503853,-46.07379913,6.364310265
16.09546658,30.64846802,-46.82036209,2.535793781
16.10546658,30.67239761,-52.64927673,-7.911269665
16.11546658,30.67239761,-52.64927673,-7.911269665
16.12546658,20.00519371,-59.57410431,-23.66561508
16.13546658,20.00519371,-59.57410431,-23.66561508
16.14546658,3.437289715,-49.12225723,-9.08853817
16.15546658,3.437289715,-49.12225723,-9.08853817
16.16546658,3.437289715,-49.12225723,-9.08853817
16.17546658,30.56711197,-38.36891174,8.704490662
16.18546658,30.56711197,-38.36891174,8.704490662
16.18546658,34.24727249,-37.64149475,-0.000598206
16.20546658,32.61536789,-32.33421326,-13.60140228
16.21546658,32.61536789,-32.33421326,-13.60140228
16.22546658,25.75275421,-29.25704193,-2.938984394
16.23546658,26.14517593,-29.87917709,3.75134778
16.24546658,27.49472809,-29.4293251,8.637491226
16.25546658,29.60998344,-27.74477768,10.53260708
16.26546658,31.6630249,-27.33321381,8.804988861
16.27546658,31.39024353,-26.26122856,5.287539959
16.28546658,29.13620567,-24.05983162,2.248655081
16.29546658,27.32244492,-23.75354958,3.425923824
16.30546658,25.13540459,-23.35634232,5.842674732
16.31546658,23.73799706,-23.03091812,9.101698875
16.32546658,22.85743904,-23.28934288,11.54716396
16.33546658,21.65145493,-23.29891396,13.13121223
16.34546658,21.65145493,-23.29891396,13.13121223
16.35546658,20.13440704,-22.57149506,18.7112751
16.36546658,20.13440704,-22.57149506,18.7112751
16.37546658,20.13440704,-22.57149506,18.7112751
16.38546658,20.13440704,-22.57149506,18.7112751
16.39546658,22.50808525,-24.84946251,29.58904648
16.40546658,22.89093781,-24.65803719,32.31208038
16.41546658,22.89093781,-24.65803719,32.31208038
16.42546658,22.89093781,-24.65803719,32.31208038
16.43546658,22.89093781,-24.65803719,32.31208038
16.44546658,12.31466198,-18.3984127,28.40699196
16.45546658,12.31466198,-18.3984127,28.40699196
16.46546658,7.079165936,-14.93360615,23.8558445
16.47546658,2.939582586,-12.99063396,19.29990959
16.48546658,0.340977222,-10.41117096,17.95514297
16.49546658,-1.310070395,-7.348358154,17.32343864
16.50546658,-2.583052158,-4.658825874,16.44766426
16.51546658,-3.396611691,-2.294716835,15.51924992
16.52546658,-2.922832966,-1.313659668,14.68176174
16.53546658,-1.568495274,-3.548556089,10.71924686
16.54546658,-1.568495274,-3.548556089,10.71924686
16.55546658,-1.568495274,-3.548556089,10.71924686
16.56546658,-2.980260611,-2.792423964,7.52722168
16.57546658,-3.477967739,-1.466800332,7.709076405
16.58546658,-3.477967739,-1.466800332,7.709076405
16.59546658,-3.310470104,-0.279960245,9.656833649
16.60546658,-3.310470104,-0.279960245,9.656833649
16.61546658,-3.343969584,1.083948612,5.081757069
16.62546658,-2.745764017,0.95952189,3.258426189
16.63546658,-2.745764017,0.95952189,3.258426189
16.64546658,-2.338984251,0.945164919,0.047258247
16.65546658,-2.50169611,0.074177504,1.497308731
16.66546658,-2.50169611,0.074177504,1.497308731
16.67546658,-2.889333248,-1.155733347,10.31725311
16.68546658,-2.975475073,-1.112662554,13.49492168
16.69546658,-3.052045345,-0.696311414,15.37089443
16.70546658,-3.870390654,0.031106694,16.27059555
16.71546658,-5.473581791,0.806381226,15.88774395
16.72546658,-7.272984505,2.012363911,15.49532127
16.73546658,-9.364311218,5.38624382,17.47179222
16.74546658,-9.493523598,6.697510719,21.70230293
16.75546658,-9.306883812,7.702496052,27.85185814
16.76546658,-9.177671432,8.23370266,33.87220001
16.77546658,-9.412167549,8.554341316,38.13620758
16.78546658,-9.866804123,8.760123253,40.22753525
16.79546658,-9.866804123,8.760123253,40.22753525
16.80546658,-5.827719688,5.91266489,41.89294052
16.81546658,-2.382055044,4.606183529,43.59184647
16.82546658,0.920040309,2.730210543,46.30530548
16.83546658,4.088137627,-1.414158225,49.707901
16.84546658,6.614958286,-7.463213921,50.3491745
16.85546658,8.605786324,-15.7806654,47.47300339
16.86546658,13.31007576,-39.12025833,36.5330162
16.87546658,14.33898926,-52.7449913,31.70430183
16.88546658,14.33898926,-52.7449913,31.70430183
16.89546658,4.059423447,-88.94361115,30.03411102
16.90546658,4.059423447,-88.94361115,30.03411102
16.91546658,-2.673979282,-122.4048386,25.70310211
16.92546658,-1.190429211,-128.9085388,22.74557304
16.92546658,-2.673979282,-122.4048386,25.70310211
16.94546658,18.45464516,-112.0822067,14.48076439
16.95546658,19.86162376,-93.19805145,-3.412763357
16.96546658,22.57029915,-72.60063171,-21.55514526
16.97546658,27.65744019,-52.96991348,-28.77668381
16.98546658,27.65744019,-52.96991348,-28.77668381
16.99546658,27.65744019,-52.96991348,-28.77668381
17.00546658,13.24786282,-43.49912262,-18.51626015
17.01546658,3.169293642,-36.3685112,-14.52024555
17.02546658,0.369691104,-32.07578659,-7.088139057
17.03546658,3.896711588,-32.7792778,1.181456208
17.04546658,9.46720314,-34.32504272,6.962515831
17.05546658,18.0095787,-34.20539856,6.02452898
17.06546658,18.02393723,-32.63092422,0.142971158
17.07546658,16.8035965,-30.75494957,-5.776872158
17.08546658,16.8035965,-30.75494957,-5.776872158
17.09546658,16.25324821,-23.63869476,-7.088139057
17.10546658,18.73221207,-22.36571312,-5.532804012
17.11546658,18.73221207,-22.36571312,-5.532804012
17.12546658,18.73221207,-22.36571312,-5.532804012
17.13546658,23.69013977,-16.64686775,-7.686344624
17.14546658,25.36511612,-21.3080864,-10.66780186
17.15546658,25.26461792,-23.79662132,-12.6442728
17.16546658,21.0197506,-22.57149506,-12.78784275
17.17546658,15.87039661,-19.70010948,-11.46221828
17.18546658,15.87039661,-19.70010948,-11.46221828
17.19546658,18.46421623,-21.98764801,3.84706068
17.20546658,22.29751778,-27.50071144,7.345367432
17.21546658,22.68994141,-27.25185776,8.938986778
17.22546658,21.00539398,-24.25125694,10.64267731
17.23546658,21.10110664,-22.43749809,11.4323082
17.24546658,24.1447773,-20.6811657,10.10668468
17.25546658,25.65704155,-19.34118462,8.40299511
17.26546658,27.13101959,-18.76212311,6.818946362
17.27546658,27.48037148,-18.47019768,5.617749214
17.28546658,27.45644379,-18.89612007,5.172684193
17.29546658,26.45624352,-19.62832451,5.215754986
17.30546658,24.69991112,-19.81974983,6.292525291
17.31546658,22.44587326,-20.54716873,9.872187614
17.32546658,22.16830444,-20.53759766,11.78644657
17.33546658,22.16830444,-20.53759766,11.78644657
17.34546658,22.09173584,-20.88694954,14.4376936
17.35546658,21.59402847,-21.2458725,15.77288914
17.36546658,20.79003906,-20.96830559,16.94537163
17.37546658,20.79003906,-20.96830559,16.94537163
17.38546658,20.79003906,-20.96830559,16.94537163
17.39546658,18.02393723,-17.26421547,15.303895
17.40546658,17.75593948,-16.31665802,14.90668678
17.41546658,17.50230217,-15.43131351,14.57169151
17.42546658,17.36351776,-14.79482269,14.2749815
17.43546658,16.73659706,-14.34975719,12.99721432
17.44546658,16.73659706,-14.34975719,12.99721432
17.45546658,14.70748425,-14.21097374,12.78664589
17.46546658,13.26700497,-13.82812214,13.52363491
17.47546658,11.80738354,-13.27298737,14.54776382
17.48546658,10.06062317,-12.31585789,15.53360653
17.49546658,8.629714966,-11.30608654,16.45723534
17.50546658,5.514259815,-7.951349735,16.44766426
17.51546658,4.504488468,-6.104090691,15.89252949
17.52546658,3.834498405,-5.142175674,14.5381918
17.53546658,3.202793121,-4.213760853,12.21236897
17.54546658,2.484946251,-3.089133978,9.675976753
17.55546658,1.695314884,-1.787438512,7.637291908
17.56546658,1.695314884,-1.787438512,7.637291908
17.57546658,1.695314884,-1.787438512,7.637291908
17.58546658,1.427318692,0.667597532,5.14397049
17.59546658,1.345962763,0.91166544,5.053043365
17.60546658,1.374676585,1.323230863,4.722833633
17.61546658,1.379462242,1.572084427,4.119842529
17.62546658,1.322034478,1.060020447,3.875774384
17.63546658,1.283749342,-1.00737834,4.335196495
17.64546658,0.518046081,-1.500299811,5.076971531
17.65546658,-0.209371984,-1.710868239,5.947958946
17.66546658,-0.941575706,-1.801795483,7.579864025
17.67546658,-1.46321106,-1.95015049,9.058628082
17.68546658,-2.099701881,-2.242074728,11.51844978
17.69546658,-4.430311203,-1.509871125,20.04647064
17.70546658,-5.21994257,0.078963146,25.45903397
17.71546658,-5.21994257,0.078963146,25.45903397
17.72546658,-5.21994257,0.078963146,25.45903397
17.73546658,-3.310470104,3.127419233,33.97269821
17.74546658,-2.190629244,3.558127165,32.71407318
17.75546658,-1.889133453,3.189632654,31.4745903
17.76546658,-1.889133453,3.189632654,31.4745903
17.77546658,-1.889133453,3.189632654,31.4745903
17.78546658,1.188036442,0.232103795,42.71128464
17.79546658,4.13120842,-1.90229404,44.13262177
17.80546658,7.23230648,-4.299902439,44.04648209
17.81546658,10.6109724,-6.946363926,42.9697113
17.82546658,10.6109724,-6.946363926,42.9697113
17.83546658,10.6109724,-6.946363926,42.9697113
17.84546658,20.20619011,-23.65305138,43.31427765
17.85546658,21.03410721,-29.06561661,41.06502533
17.86546658,21.27817535,-36.40201187,36.80580139
17.87546658,20.5316143,-44.23132706,30.37867737
17.88546658,13.97528076,-66.02515411,23.45384979
17.89546658,7.581658363,-78.76454163,23.48256302
17.90546658,-0.654437006,-91.81978607,28.98605537
17.91546658,-8.675178528,-107.0955658,32.5657196
17.92546658,-16.70549202,-119.9976654,26.88994217
17.93546658,-16.70549202,-119.9976654,26.88994217
17.94546658,-9.972088814,-131.1673584,28.16770935
17.95546658,-9.972088814,-131.1673584,28.16770935
17.96546658,-9.972088814,-131.1673584,28.16770935
17.97546658,2.389233351,-69.70053101,-15.7118721
17.98546658,10.48654556,-56.18108368,-25.27359009
17.99546658,19.7659111,-48.98825836,-22.01935196
18.00546658,21.41695976,-49.22275543,-13.18026543
18.01546658,5.160121918,-48.69633484,5.411966801
18.02546658,2.781656265,-50.75894547,9.977472305
18.03546658,7.088737011,-54.54439163,9.561120987
18.04546658,13.25743389,-55.55894852,5.167898655
18.05546658,16.99980927,-53.03212738,0.080757767
18.06546658,20.90489578,-52.41477966,-4.039682865
18.07546658,20.24926186,-47.54299164,-7.351349354
18.08546658,20.24926186,-47.54299164,-7.351349354
18.09546658,20.24926186,-47.54299164,-7.351349354
18.10546658,20.24926186,-47.54299164,-7.351349354
18.11546658,10.76411247,-25.00738907,-1.230509043
18.12546658,13.07557964,-23.73440742,-0.081954174
18.13546658,13.07557964,-23.73440742,-0.081954174
18.14546658,13.07557964,-23.73440742,-0.081954174
18.15546658,14.29591846,-16.68036652,-9.222537041
18.16546658,13.16172123,-14.47896957,-10.36151981
18.17546658,12.42473125,-13.34477234,-9.930811882
18.18546658,12.90329647,-14.13440323,-7.96391201
18.19546658,14.98505211,-15.86680698,-4.791028976
18.20546658,17.27737617,-17.87677765,-0.91465646
18.21546658,17.27737617,-17.87677765,-0.91465646
18.22546658,15.9948225,-21.11187363,2.310868502
18.23546658,13.4967165,-21.80100632,1.846660852
18.24546658,11.15174961,-22.2125721,2.71286273
18.25546658,9.663414001,-22.37528419,4.713262558
18.26546658,8.605786324,-22.81077766,6.570092678
18.27546658,8.605786324,-22.81077766,6.570092678
18.28546658,8.605786324,-22.81077766,6.570092678
18.29546658,8.605786324,-22.81077766,6.570092678
18.30546658,-0.544367135,-22.91606331,15.55753422
18.31546658,-1.860419631,-20.18824387,17.68714714
18.32546658,-1.889133453,-17.78585052,18.32363701
18.33546658,-1.889133453,-17.78585052,18.32363701
18.34546658,-1.889133453,-17.78585052,18.32363701
18.35546658,7.098308563,-13.83769321,12.00658607
18.36546658,10.15155029,-12.92842102,10.58524895
18.37546658,13.78385448,-12.42592812,9.39840889
18.38546658,17.1673069,-13.00499153,7.570292473
18.39546658,19.16770554,-14.02433395,5.139184952
18.40546658,19.16770554,-14.02433395,5.139184952
18.41546658,19.16770554,-14.02433395,5.139184952
18.42546658,20.96232224,-21.48994064,4.540979385
18.43546658,20.30190277,-21.93979073,8.656634331
18.44546658,21.11546326,-21.95414734,12.70528984
18.45546658,22.6133709,-20.1547451,14.66261864
18.46546658,22.6133709,-20.1547451,14.66261864
18.47546658,28.46621513,-16.27837181,4.043272018
18.48546658,28.46621513,-16.27837181,4.043272018
18.49546658,28.46621513,-16.27837181,4.043272018
18.50546658,20.6943264,-18.87697792,-2.666202545
18.51546658,17.29173279,-17.76670837,-0.488734037
18.52546658,14.98505211,-16.0630188,2.516651154
18.53546658,12.18066406,-11.21515942,6.38823843
18.54546658,12.18066406,-11.21515942,6.38823843
18.55546658,13.13300705,-6.391229153,5.110470772
18.56546658,13.89392471,-5.242674351,2.870789051
18.57546658,12.79322624,-4.826323509,0.822532773
18.58546658,10.52004433,-4.04147768,1.071386337
18.59546658,7.165307522,-2.122433662,6.010172367
18.60546658,7.165307522,-2.122433662,6.010172367
18.61546658,7.165307522,-2.122433662,6.010172367
18.62546658,3.805784464,2.66799736,12.06401348
18.63546658,5.973681927,2.313859463,10.99202919
18.64546658,8.199007034,2.423929453,8.991629601
18.65546658,10.328619,2.328216314,7.173084259
18.66546658,11.94138145,1.136590719,4.35912466
18.67546658,10.98425198,0.873380244,5.033900738
18.68546658,9.562915802,0.485742986,7.125227451
18.69546658,8.462217331,-0.150747821,10.27418232
18.70546658,7.414160728,-0.859023333,12.50907898
18.71546658,7.414160728,-0.859023333,12.50907898
18.72546658,7.414160728,-0.859023333,12.50907898
18.73546658,7.414160728,-0.859023333,12.50907898
18.74546658,7.414160728,-0.859023333,12.50907898
18.75546658,4.734199524,-6.88893652,27.27279472
18.76546658,6.184250355,-8.913264275,37.27000809
18.77546658,9.247062683,-11.21037388,46.03730774
18.78546658,14.05663681,-13.5601263,50.52145767
18.79546658,14.05663681,-13.5601263,50.52145767
18.80546658,26.82473755,-25.38067055,36.93022537
18.81546658,22.17787743,-31.23351479,28.62713242
18.82546658,11.96052361,-37.92863083,22.98007011
18.83546658,0.451047063,-45.94458771,23.82712936
18.84546658,-11.89591789,-54.24289703,31.49373436
18.85546658,-35.64228821,-77.13742065,49.63611603
18.86546658,-45.99842453,-80.53044891,48.4779892
18.87546658,-45.38586426,-77.92705536,39.40440369
18.88546658,-33.7950325,-72.10771179,24.99961281
18.89546658,-21.78306007,-59.72724533,15.57667732
18.90546658,-8.191828728,-49.9597435,16.09831238
18.91546658,6.84945488,-44.5758934,21.66880417
18.92546658,5.686542988,-46.61457825,19.63490486
18.93546658,5.686542988,-46.61457825,19.63490486
18.94546658,5.686542988,-46.61457825,19.63490486
18.95546658,-17.09791374,-61.04329681,-2.044068813
18.96546658,-27.63111877,-59.41617966,-6.22193718
18.97546658,-32.57469177,-56.30072403,-9.251250267
18.98546658,-36.1543541,-47.55735016,-8.81097126
18.99546658,-32.75175858,-42.70470428,-7.159923553
19.00546658,-26.31985283,-38.02912903,-6.71964407
19.01546658,-18.45225143,-33.76033401,-7.64327383
19.02546658,-10.83350468,-31.45365334,-9.547960281
19.03546658,-5.717649937,-28.6875515,-11.40000534
19.04546658,0.484546572,-24.33739853,-12.5246315
19.05546658,1.585245013,-23.83969116,-12.80219936
19.06546658,1.575673699,-23.2414856,-12.72084332
19.07546658,0.594616413,-23.21755791,-13.92682552
19.08546658,-1.592423439,-24.22732925,-16.97528267
19.09546658,-4.506881237,-23.24627113,-19.39203262
19.10546658,-6.512066841,-19.89632034,-19.51167488
19.11546658,-6.512066841,-19.89632034,-19.51167488
19.12546658,-5.133800983,-14.21097374,-14.98923969
19.13546658,-1.329213023,-14.20140266,-12.4863472
19.14546658,3.418147087,-16.07737541,-10.71087265
19.15546658,8.309076309,-19.32204247,-8.12183857
19.16546658,9.840482712,-20.84866333,-6.705287457
19.17546658,9.840482712,-20.84866333,-6.705287457
19.18546658,9.352347374,-16.97707748,-2.536990166
19.19546658,9.07477951,-17.61835289,-2.728415966
19.20546658,7.998009682,-17.54656792,-3.202194929
19.21546658,7.998009682,-17.54656792,-3.202194929
19.22546658,5.241477966,-18.81954956,-4.116253376
19.23546658,2.920439959,-20.22174454,-4.288536549
19.24546658,2.920439959,-20.22174454,-4.288536549
19.25546658,-4.841876507,-20.94437599,3.258426189
19.26546658,-5.09073019,-19.72882271,8.55134964
19.27546658,-3.047259569,-18.69990921,12.69571877
19.28546658,0.819541752,-18.1591301,14.60040569
19.29546658,4.169493675,-18.26920128,14.3946228
19.30546658,2.666800737,-18.13998795,9.32662487
19.31546658,1.030110121,-17.69013786,8.790632248
19.32546658,0.106480606,-17.83370781,9.245268822
19.33546658,0.096909314,-17.51785469,10.79581738
19.34546658,1.164108157,-16.64208221,12.45643616
19.35546658,3.1405797,-15.66580963,13.31785297
19.36546658,3.1405797,-15.66580963,13.31785297
19.37546658,3.1405797,-15.66580963,13.31785297
19.38546658,3.1405797,-15.66580963,13.31785297
19.39546658,3.1405797,-15.66580963,13.31785297
19.40546658,14.43470287,-16.73300934,1.798804402
19.41546658,16.4016037,-19.99681854,1.253240824
19.42546658,15.46361637,-20.85344887,2.449652195
19.43546658,15.46361637,-20.85344887,2.449652195
19.44546658,15.46361637,-20.85344887,2.449652195
19.45546658,20.34976006,-17.79063606,10.25503922
19.46546658,20.5938282,-17.78106499,5.344967365
19.47546658,19.56012917,-17.52264023,1.171884894
19.48546658,18.29193306,-16.53679657,0.119042926
19.49546658,19.78983879,-16.47458458,4.115056515
19.50546658,20.83311081,-16.33580017,5.943173409
19.51546658,21.89073753,-16.51286888,6.349953175
19.52546658,22.17787743,-16.57029724,4.780261517
19.53546658,21.14417648,-16.02473259,2.306082726
19.54546658,19.60798454,-14.78525066,1.176670551
19.55546658,18.82313919,-13.26341629,2.373081923
19.56546658,20.00997925,-11.33958626,6.364310265
19.57546658,21.09632111,-10.80838013,7.09172821
19.58546658,21.94816589,-10.5355978,6.450451851
19.59546658,22.24008942,-10.88973618,4.641477585
19.60546658,21.3978157,-11.63629627,2.645863533
19.61546658,19.75634003,-11.47358418,2.703291416
19.62546658,19.75634003,-11.47358418,2.703291416
19.63546658,17.61237144,-8.707481384,10.86760235
19.64546658,17.57408524,-8.319844246,11.6524477
19.65546658,17.9712944,-8.621339798,10.81496048
19.66546658,18.29193306,-9.516255379,9.135198593
19.67546658,18.27757645,-10.88973618,7.666005611
19.68546658,18.01915169,-12.18185997,7.350152969
19.69546658,18.01915169,-12.18185997,7.350152969
19.70546658,18.01915169,-12.18185997,7.350152969
19.71546658,18.01915169,-12.18185997,7.350152969
19.72546658,13.08036518,-13.31127262,16.33280945
19.73546658,10.44347477,-12.05264759,16.98365784
19.74546658,8.227720261,-9.913464546,17.09851265
19.75546658,2.796013355,-5.199603558,20.30010986
19.76546658,1.197607756,-1.174875975,24.81775856
19.77546658,4.13120842,-0.265603304,29.73740196
19.78546658,9.543772697,-2.160718918,31.70430183
19.79546658,14.42991734,-3.830909014,30.83810043
19.80546658,18.78964043,-5.740381718,29.56033325
19.81546658,24.49891472,-15.34038639,29.89054298
19.82546658,20.92882347,-19.5900383,31.02952576
19.83546658,15.43968773,-26.55315208,30.9338131
19.84546658,15.43968773,-26.55315208,30.9338131
19.85546658,15.43968773,-26.55315208,30.9338131
19.86546658,-11.73799133,-72.4235611,47.68357086
19.87546658,-25.54936409,-91.70014191,58.15934753
19.88546658,-43.86402893,-128.2481079,48.87519836
19.89546658,-46.30470657,-122.8020477,34.96811295
19.90546658,-36.72863007,-109.3974609,18.95055771
19.91546658,-27.80818748,-87.09635162,4.670191765
19.92546658,-20.4430809,-62.21099472,-6.0927248
19.93546658,-10.48415279,-48.10770035,-17.3054924
19.94546658,4.782055855,-29.0895443,-15.74058533
19.95546658,4.782055855,-29.0895443,-15.74058533
19.96546658,4.782055855,-29.0895443,-15.74058533
19.97546658,4.782055855,-29.0895443,-15.74058533
19.98546658,-6.46421051,-40.30231094,-7.968697548
19.99546658,-14.4753809,-43.1832695,-13.07498074
20.00546658,-22.26641083,-42.35535431,-15.34337711
20.01546658,-22.26641083,-42.35535431,-15.34337711
20.02546658,-22.26641083,-42.35535431,-15.34337711
20.03546658,-19.23231125,-33.59762192,-1.029511929
20.04546658,-16.74856186,-31.69772148,-2.364706993
20.05546658,-14.99223042,-28.99861717,-5.403591633
20.06546658,-11.48913765,-24.84467697,-7.389634609
20.07546658,-11.48913765,-24.84467697,-7.389634609
20.08546658,4.839483738,-18.83869362,-8.399405479
20.09546658,7.835297585,-18.18784523,-8.954540253
20.10546658,10.01276588,-18.59941101,-9.777671814
20.11546658,10.37647533,-19.92503357,-12.47198963
20.12546658,8.476573944,-20.20738792,-15.28116322
20.13546658,6.155536175,-19.36511421,-17.07578087
20.14546658,1.470389485,-16.83350754,-16.19043541
20.15546658,-0.606580555,-15.68495274,-13.53918839
20.16546658,-1.424925923,-14.84267902,-9.303893089
20.17546658,0.752542734,-15.47916985,-5.279164791
20.18546658,3.064009428,-16.98186302,-2.556132793
20.19546658,4.11685133,-17.71885109,-0.996012449
20.20546658,5.566901684,-18.09691811,-0.196809664
20.21546658,5.935396671,-18.3984127,-0.503090978
20.22546658,5.605186939,-18.32662773,-0.890728235
20.23546658,4.84905529,-18.07298851,-1.211366415
20.24546658,3.867997885,-18.19263077,-1.2352947
20.25546658,2.973082066,-19.37468529,-1.182652593
20.26546658,0.427118838,-23.57648087,-0.249451756
20.27546658,-1.410568953,-24.80639267,2.124228239
20.28546658,-3.324826956,-25.36631203,6.914659023
20.29546658,-3.324826956,-25.36631203,6.914659023
20.30546658,-4.071387768,-24.42832565,16.38545036
20.31546658,-1.668993831,-23.68176651,18.31885147
20.32546658,1.173679471,-22.38964081,17.71107483
20.33546658,1.173679471,-22.38964081,17.71107483
20.34546658,1.173679471,-22.38964081,17.71107483
20.35546658,-0.936790049,-20.22174454,12.31286716
20.36546658,-1.635494232,-18.39362717,16.98844337
20.37546658,-1.027717352,-16.73300934,22.0372982
20.38546658,0.589830756,-15.3978138,26.22952271
20.39546658,5.538187981,-13.60798264,24.56890488
20.40546658,7.782655716,-13.67019558,20.29532433
20.41546658,8.648857117,-13.12941742,17.27079582
20.42546658,8.998209953,-12.44028473,17.1176548
20.43546658,9.23270607,-12.14836025,18.94577217
20.44546658,9.400203705,-11.63629627,21.27638054
20.45546658,9.878767967,-11.24865913,22.59721947
20.46546658,11.56331539,-12.91884899,19.13719749
20.47546658,11.73559856,-13.26341629,15.5862484
20.48546658,11.73559856,-13.26341629,15.5862484
20.49546658,11.73559856,-13.26341629,15.5862484
20.50546658,10.84546852,-12.01914787,9.795618057
20.51546658,10.84546852,-12.01914787,9.795618057
20.52546658,10.84546852,-12.01914787,9.795618057
20.53546658,10.84546852,-12.01914787,9.795618057
20.54546658,10.84546852,-12.01914787,9.795618057
20.55546658,11.64945698,-9.817750931,3.870988846
20.56546658,11.31446171,-10.67916775,1.827518344
20.57546658,11.05603695,-12.84227943,0.396610349
20.58546658,9.247062683,-14.84267902,-0.349950314
20.59546658,7.136593342,-15.22553062,3.775275946
20.60546658,7.844869137,-15.19681644,6.287739754
20.61546658,9.768698692,-15.18245983,7.086942673
20.62546658,12.45823097,-14.20140266,6.397809505
20.63546658,15.08555031,-13.39741421,4.134199142
20.64546658,16.56910133,-12.75613785,1.727019787
20.65546658,21.28296089,-15.88594913,-0.957727253
20.66546658,22.31187439,-17.7571373,-1.546361685
20.67546658,22.31187439,-17.7571373,-1.546361685
20.68546658,22.31187439,-17.7571373,-1.546361685
20.69546658,19.80419731,-18.22134399,4.383052826
20.70546658,20.49811554,-20.23610115,6.828517437
20.71546658,21.04846382,-21.0448761,8.967700958
20.72546658,22.77129745,-22.69113731,9.924830437
20.73546658,22.4506588,-22.34657097,9.393623352
20.74546658,22.56072807,-21.23151588,10.11625576
20.75546658,23.37428856,-20.53759766,11.32702446
20.76546658,23.37428856,-20.53759766,11.32702446
20.77546658,23.80021095,-20.78644943,7.74736166
20.78546658,23.80021095,-20.78644943,7.74736166
20.79546658,25.68096924,-26.01237488,2.799004316
20.80546658,26.6428833,-28.39084053,4.076771736
20.81546658,28.12643433,-31.16651535,5.416752338
20.82546658,30.21297455,-34.12882996,6.546164513
20.83546658,32.72543716,-36.87100601,7.082156658
20.84546658,39.55934143,-46.18865585,4.986044407
20.85546658,43.11029053,-52.23292542,5.316253662
20.86546658,45.70889282,-60.04309845,6.201598167
20.87546658,43.22993088,-65.57051849,9.431908607
20.88546658,39.12863159,-71.64350128,15.86381626
20.89546658,34.21855927,-79.93224335,23.05185509
20.90546658,28.82513809,-87.18249512,30.91945648
20.91546658,20.58904266,-96.04072571,38.48556137
20.92546658,20.58904266,-96.04072571,38.48556137
20.93546658,17.20080566,-109.0146103,29.89532852
20.94546658,16.49731636,-115.5230865,28.09113884
20.95546658,12.8889389,-114.2118149,31.7378006
20.96546658,8.864211082,-105.5450134,39.73939896
20.97546658,-0.90329057,-89.38867188,54.63711548
20.98546658,-0.90329057,-89.38867188,54.63711548
20.99546658,-0.90329057,-89.38867188,54.63711548
21.00546658,-14.70509148,-64.22575378,36.98765564
21.01546658,-16.93041611,-56.68357468,29.2779789
21.02546658,-17.0548439,-51.8548584,21.77887344
21.03546658,-18.05025673,-51.7160759,14.78704548
21.04546658,-18.05025673,-51.7160759,14.78704548
21.05546658,-18.05025673,-51.7160759,14.78704548
21.06546658,-34.54159164,-31.97050285,7.163512707
21.07546658,-33.74238968,-25.86401939,6.292525291
21.08546658,-30.62214851,-22.17907333,5.134399414
21.09546658,-25.91307259,-18.92962074,5.392824173
21.10546658,-25.91307259,-18.92962074,5.392824173
21.11546658,-16.2269268,-17.6949234,-0.919442117
21.12546658,-15.46600914,-16.30708694,-5.269593716
21.13546658,-14.38445377,-15.61316776,-8.992825508
21.14546658,-14.10210037,-14.54118347,-11.67757225
21.15546658,-13.66182041,-13.12941742,-11.73500061
21.16546658,-11.9724884,-12.51685524,-8.94018364
21.17546658,-11.9724884,-12.51685524,-8.94018364
21.18546658,-6.617351055,-14.38325691,-4.121038914
21.19546658,-5.990431309,-14.68475246,-4.877170563
21.20546658,-6.177071571,-15.40738487,-6.509075642
21.21546658,-7.866404533,-15.7806654,-8.95932579
21.22546658,-9.594022751,-13.79940796,-9.969097137
21.23546658,-8.928817749,-11.80379391,-7.892127514
21.24546658,-8.057829857,-12.26800156,-6.432505608
21.25546658,-7.239484787,-10.2723875,-4.389034748
21.26546658,-5.866004944,-8.037490845,-3.029911757
21.27546658,-3.659822226,-6.43908596,-2.436491728
21.28546658,-1.094716311,-5.769095421,-2.809772015
21.29546658,3.820141315,-7.008577347,-5.370092392
21.30546658,5.648257732,-9.420542717,-8.217551231
21.31546658,5.47597456,-10.82273674,-10.68215847
21.32546658,4.341776848,-10.47338486,-11.91685486
21.33546658,1.944168448,-8.975478172,-11.80678558
21.34546658,-0.553938448,-6.673582554,-10.38544846
21.35546658,-1.649851203,-5.079962254,-7.916055679
21.36546658,-1.649851203,-5.079962254,-7.916055679
21.37546658,-1.649851203,-5.079962254,-7.916055679
21.38546658,7.56730175,-9.276973724,-0.316450804
21.39546658,9.136993408,-10.28674412,-1.067797065
21.40546658,8.797212601,-11.28215885,-3.254837036
21.41546658,7.007380962,-11.64586735,-5.097310543
21.42546658,2.556730986,-13.25384426,-5.666802406
21.43546658,2.556730986,-13.25384426,-5.666802406
21.44546658,2.556730986,-13.25384426,-5.666802406
21.45546658,1.968096614,-13.18684578,5.234897614
21.46546658,3.303291559,-13.32562923,7.689933777
21.47546658,4.025924206,-13.12463188,8.824131966
21.48546658,4.088137627,-12.30150127,9.393623352
21.49546658,4.6432724,-10.34417248,9.039485931
21.50546658,4.6432724,-10.34417248,9.039485931
21.51546658,7.457231998,-10.36331463,8.321639061
21.52546658,9.984052658,-11.73679543,8.55134964
21.53546658,11.30967617,-13.08156109,8.111070633
21.54546658,11.05603695,-13.34955788,7.929215908
21.55546658,9.869196892,-11.65065384,10.75274658
21.56546658,10.03669453,-10.79402256,12.3607235
21.57546658,10.03669453,-10.79402256,12.3607235
21.58546658,11.43410301,-9.932606697,11.60937691
21.59546658,11.69252777,-10.12881851,9.235696793
21.60546658,11.87916756,-10.90409279,7.096513748
21.61546658,12.69272804,-12.33978653,5.83310318
21.62546658,15.43011665,-14.83789349,2.645863533
21.63546658,15.13819218,-15.03888988,0.884746194
21.64546658,14.79841137,-14.85703564,0.343968242
21.65546658,13.84606838,-14.87617874,0.262612283
21.66546658,13.84606838,-14.87617874,0.262612283
21.67546658,13.70728493,-12.88056469,3.330210924
21.68546658,17.30130386,-11.26780224,2.722434044
21.69546658,17.95693779,-10.24845982,0.631106973
21.70546658,19.42613029,-10.68873882,-2.010569334
21.71546658,19.22034836,-12.74178028,-5.37487793
21.72546658,16.90888214,-13.5409832,-7.23170805
21.73546658,13.88435364,-13.57448292,-6.011368752
21.74546658,13.88435364,-13.57448292,-6.011368752
21.75546658,13.88435364,-13.57448292,-6.011368752
21.76546658,13.88435364,-13.57448292,-6.011368752
21.77546658,13.88435364,-13.57448292,-6.011368752
21.78546658,16.87538147,-16.50329781,10.95374393
21.79546658,16.44945908,-16.45544052,7.838288784
21.80546658,16.02353668,-15.74238014,6.527021885
21.81546658,16.02353668,-15.74238014,6.527021885
21.82546658,16.02353668,-15.74238014,6.527021885
21.83546658,22.96272278,-13.95733452,12.70528984
21.84546658,24.89133835,-15.08674717,10.27418232
21.85546658,25.19761848,-16.27358627,6.675376892
21.86546658,25.1114769,-16.97707748,4.555335999
21.87546658,25.1114769,-16.97707748,4.555335999
21.88546658,24.39841652,-19.73360825,8.45085144
21.89546658,23.65664101,-19.73839378,10.08275604
21.90546658,23.45564461,-19.77667999,10.01097202
21.91546658,23.3790741,-20.00160408,9.034700394
21.92546658,23.10150528,-19.47039795,8.297710419
21.93546658,22.93400955,-18.37927055,8.517850876
21.94546658,20.64647102,-17.38385582,8.584849358
21.95546658,19.45963097,-17.13500214,9.637691498
21.96546658,19.07677841,-17.4317131,10.96331501
21.97546658,19.57927132,-19.17368698,11.35095215
21.98546658,20.47418785,-21.91586304,11.46580791
21.99546658,21.19681931,-24.85903358,11.67637634
22.00546658,21.19681931,-24.85903358,11.67637634
22.01546658,21.19681931,-24.85903358,11.67637634
22.02546658,21.19681931,-24.85903358,11.67637634
22.03546658,16.11924934,-37.77548981,22.29572296
22.04546658,15.38704586,-37.27299881,26.56451797
22.05546658,17.00938034,-38.65605164,27.4450779
22.06546658,18.06700706,-41.00101471,25.25803757
22.07546658,23.39343071,-53.11348343,26.27259445
22.08546658,27.26023102,-68.92047119,32.86242676
22.09546658,25.47518539,-78.97032928,48.20520782
22.10546658,22.12044907,-86.91449738,60.80580902
22.11546658,17.84208298,-95.12187958,58.69055557
22.12546658,9.476774216,-97.65348816,46.42973328
22.13546658,9.476774216,-97.65348816,46.42973328
22.14546658,9.476774216,-97.65348816,46.42973328
22.15546658,9.476774216,-97.65348816,46.42973328
22.16546658,-7.990831375,-77.70691681,12.14536953
22.17546658,-7.287341595,-76.08457947,9.350552559
22.18546658,-10.93878841,-70.37052155,4.627120972
22.19546658,-10.93878841,-70.37052155,4.627120972
22.20546658,-10.93878841,-70.37052155,4.627120972
22.21546658,-25.08515549,-38.81875992,-14.71167183
22.22546658,-25.08515549,-38.81875992,-14.71167183
22.23546658,-16.80599022,-35.02853012,-0.110668048
22.24546658,-11.06321526,-36.97150421,4.196412563
22.25546658,-8.440681458,-37.65106583,2.023729801
22.26546658,-8.344968796,-36.52165222,-11.84985638
22.27546658,-8.225327492,-33.56890869,-16.5780735
22.28546658,-6.478567123,-30.80280495,-18.09990883
22.29546658,-4.463810444,-28.98426056,-17.84148407
22.30546658,-3.339184046,-26.05544662,-16.01815224
22.31546658,-2.26241374,-22.55235291,-13.6157589
22.32546658,1.235892892,-18.70469475,-11.56271744
22.33546658,2.963510752,-18.27877235,-12.09392357
22.34546658,3.619144201,-18.20698738,-13.7354002
22.35546658,3.619144201,-18.20698738,-13.7354002
22.36546658,2.992224693,-17.88156319,-16.15693665
22.37546658,1.838884234,-16.24487305,-15.15195084
22.38546658,1.537388563,-14.48854065,-13.20897961
22.39546658,1.537388563,-14.48854065,-13.20897961
22.40546658,6.303891182,-13.21077347,-6.891927242
22.41546658,9.242277145,-14.22533035,-6.422934055
22.42546658,9.242277145,-14.22533035,-6.422934055
22.43546658,12.10409355,-17.85284996,-6.647859573
22.44546658,10.85025406,-18.73340797,-6.686144829
22.45546658,10.85025406,-18.73340797,-6.686144829
22.46546658,10.85025406,-18.73340797,-6.686144829
22.47546658,10.85025406,-18.73340797,-6.686144829
22.48546658,2.283949137,-21.45643997,0.803390205
22.49546658,2.470589399,-20.76252174,3.143570662
22.50546658,3.489931822,-19.64268112,4.895116806
22.51546658,4.959125042,-18.34577179,5.799603939
22.52546658,4.959125042,-18.34577179,5.799603939
22.53546658,2.867797852,-20.2552433,0.205184549
22.54546658,-0.281156659,-20.34617043,0.49232325
22.55546658,-0.281156659,-20.34617043,0.49232325
22.56546658,-4.750949383,-16.63729668,7.058228493
22.57546658,-2.908475876,-16.61336708,10.57089233
22.58546658,-2.908475876,-16.61336708,10.57089233
22.59546658,3.820141315,-16.8909359,11.59502029
22.60546658,3.777070522,-15.66102409,9.982257843
22.61546658,4.097708702,-14.77089405,8.302495956
22.62546658,5.093122959,-14.29232979,7.469794273
22.63546658,6.681957245,-13.8233366,7.048657417
22.64546658,8.294719696,-13.45005608,6.05324316
22.65546658,11.07996559,-12.3924284,3.330210924
22.66546658,11.07996559,-12.3924284,3.330210924
22.67546658,15.18604851,-15.12503147,2.052443504
22.68546658,16.70788383,-17.54178238,2.215155602
22.69546658,17.40180206,-19.71925163,2.995215654
22.70546658,17.34437561,-20.58545303,4.775475979
22.71546658,17.34437561,-20.58545303,4.775475979
22.72546658,19.24906158,-20.65245247,10.93460083
22.73546658,19.74198341,-20.41316986,11.25045395
22.74546658,20.13919258,-19.90110588,11.03509998
22.75546658,20.83311081,-19.84367752,10.3028965
22.76546658,21.97687912,-19.74317932,9.565906525
22.77546658,24.86262321,-18.17348862,8.742775917
22.78546658,25.84368134,-16.87179184,8.565707207
22.79546658,25.93460846,-15.46002674,8.278568268
22.80546658,25.17847633,-13.65105343,7.91007328
22.81546658,23.94856453,-12.00000572,7.436294556
22.82546658,22.5128727,-10.78445148,6.804589272
22.83546658,21.12981987,-10.00917721,6.19681263
22.84546658,21.12981987,-10.00917721,6.19681263
22.85546658,21.12981987,-10.00917721,6.19681263
22.86546658,20.49811554,-9.985248566,4.909473896
22.87546658,21.22553253,-10.01396275,4.239483356
22.88546658,21.44567299,-10.42552853,3.339782238
22.89546658,21.32603264,-11.42572784,2.703291416
22.90546658,19.2634182,-11.91864967,4.842474937
22.91546658,18.50728607,-12.33021545,7.488936901
22.92546658,17.3683033,-12.62692547,10.39860916
22.93546658,17.3683033,-12.62692547,10.39860916
22.94546658,15.2913332,-12.62692547,15.30868149
22.95546658,13.77428341,-12.88535023,15.20818233
22.96546658,11.44367409,-12.66999626,13.94477177
22.97546658,11.44367409,-12.66999626,13.94477177
22.98546658,11.44367409,-12.66999626,13.94477177
22.99546658,11.9653101,-10.74616623,12.15972614
23.00546658,11.9653101,-10.74616623,12.15972614
23.01546658,14.43948841,-10.77009487,10.14496994
23.02546658,15.33440399,-10.38724327,9.317052841
23.03546658,16.81795311,-10.46381378,7.503293514
23.04546658,16.82752609,-10.94716358,6.589235306
23.05546658,16.37288857,-11.67936707,5.900102615
23.06546658,14.99940872,-13.08634663,5.277968407
23.07546658,13.03250885,-14.25404453,5.407180786
23.08546658,10.58225822,-14.89532089,6.641877651
23.09546658,8.696713448,-14.79960823,9.393623352
23.10546658,7.222734928,-14.35932827,17.52443504
23.11546658,8.23729229,-14.17747402,22.43450737
23.12546658,8.23729229,-14.17747402,22.43450737
23.13546658,14.42034531,-18.89612007,31.13959503
23.14546658,17.37787437,-24.18425751,33.62334442
23.15546658,21.05324936,-31.48236847,36.30809402
23.16546658,26.94916534,-54.72146225,37.80599976
23.17546658,25.06362152,-66.42236328,36.63351822
23.18546658,21.45524406,-78.66883087,36.05923843
23.19546658,16.7030983,-93.51390076,36.07838058
23.20546658,8.294719696,-105.2578735,34.67140198
23.21546658,-1.372283816,-112.6277695,30.26382256
23.22546658,-11.83370399,-111.1777191,15.67717552
23.23546658,-11.02493,-104.6501007,7.838288784
23.24546658,-10.57986546,-95.5382309,0.879960537
23.25546658,-14.68116379,-81.21000671,-4.36989212
23.26546658,-20.5818634,-64.72345734,-7.217351437
23.27546658,-21.65384865,-53.31447983,-7.691130161
23.28546658,-17.0548439,-48.32305145,-7.657630444
23.29546658,-17.0548439,-48.32305145,-7.657630444
23.30546658,-17.0548439,-48.32305145,-7.657630444
23.31546658,2.255235434,-39.3547554,4.607978344
23.32546658,0.680758059,-42.7812767,-2.982055187
23.33546658,-3.253042459,-43.59483719,-12.72562885
23.34546658,-5.258227825,-43.87718964,-18.67897224
23.35546658,-5.478367329,-39.83810425,-14.23310757
23.36546658,-4.219742775,-36.55993652,-7.719843864
23.37546658,-1.080359459,-34.53082275,-3.570689678
23.38546658,2.456232548,-34.15275574,-3.135195971
23.39546658,4.734199524,-32.75056458,-4.810171604
23.40546658,6.17946434,-30.83630562,-6.442076683
23.41546658,7.801798344,-30.86023331,-8.94018364
23.42546658,6.581458569,-28.19941521,-12.98405361
23.43546658,5.557330608,-25.61995125,-13.2520504
23.44546658,5.66740036,-24.75853539,-12.77348518
23.45546658,5.66740036,-24.75853539,-12.77348518
23.46546658,8.088936806,-24.91167641,-9.007183075
23.47546658,9.180064201,-23.74876404,-6.41336298
23.48546658,12.26202011,-22.60978127,-3.312264681
23.49546658,12.26202011,-22.60978127,-3.312264681
23.50546658,12.87458229,-20.76730728,-4.91067028
23.51546658,11.97009563,-19.68575096,-5.925227165
23.52546658,10.84546852,-18.95354843,-6.293721676
23.53546658,10.09412193,-18.85305023,-5.738586903
23.54546658,9.692128181,-19.30290031,-4.269393921
23.55546658,8.242077827,-19.52304077,-1.20179522
23.56546658,7.165307522,-19.03969002,-0.321236432
23.57546658,6.227321148,-18.41755676,0.535394073
23.58546658,5.370690346,-18.06820297,0.822532773
23.59546658,4.537988186,-18.32184219,0.626321316
23.60546658,3.298506021,-17.94856262,0.82731843
23.61546658,3.298506021,-17.94856262,0.82731843
23.62546658,3.298506021,-17.94856262,0.82731843
23.63546658,3.298506021,-17.94856262,0.82731843
23.64546658,1.130608678,-17.55135345,6.010172367
23.65546658,0.934397221,-16.78086472,6.723233223
23.66546658,1.221535921,-16.21137428,7.115656376
23.67546658,1.221535921,-16.21137428,7.115656376
23.68546658,5.782256126,-15.28295803,5.239683151
23.69546658,7.179664135,-14.97667694,3.540779352
23.70546658,8.56271553,-15.06281853,1.99501586
23.71546658,9.897911072,-15.5174551,1.076171994
23.72546658,11.28574753,-16.0008049,1.023529887
23.73546658,12.54437256,-16.55115509,1.707877159
23.74546658,12.54437256,-16.55115509,1.707877159
23.75546658,12.54437256,-16.55115509,1.707877159
23.76546658,14.41555977,-17.22114372,2.554936409
23.77546658,13.89392471,-17.6566391,1.549950838
23.78546658,13.28136253,-18.24048615,0.932602644
23.79546658,13.12343597,-18.1591301,1.545165181
23.80546658,14.97069454,-18.60898209,4.368695736
23.81546658,15.71247005,-18.7860508,5.435894966
23.82546658,15.71247005,-18.7860508,5.435894966
23.83546658,15.28654766,-17.03928947,6.699305058
23.84546658,14.87498188,-15.88594913,6.603592396
23.85546658,14.99462318,-14.78525066,6.455237389
23.86546658,15.6119709,-14.00997639,6.101099491
23.87546658,17.96650887,-12.48814106,4.258625984
23.88546658,17.96650887,-12.48814106,4.258625984
23.89546658,19.19641876,-12.57428265,1.167099237
23.90546658,18.55035782,-13.22991657,1.004387259
23.91546658,17.19602013,-12.54078388,2.48793745
23.92546658,15.86082458,-11.42094231,5.354538918
23.93546658,14.73619843,-9.396614075,11.90130138
23.94546658,14.49213028,-8.77448082,12.38465214
23.95546658,14.49213028,-8.77448082,12.38465214
23.96546658,14.49213028,-8.77448082,12.38465214
23.97546658,14.49213028,-8.77448082,12.38465214
23.98546658,13.45843124,-8.736195564,5.20618391
23.99546658,13.84128284,-8.348558426,5.493322372
24.00546658,13.84128284,-8.348558426,5.493322372
24.01546658,15.77946854,-7.999206066,8.824131966
24.02546658,15.9948225,-7.520641804,9.618548393
24.03546658,15.80339718,-7.05164814,9.876974106
24.04546658,15.99960899,-6.563512325,9.431908607
24.05546658,16.42553139,-6.496513367,8.015357971
24.06546658,16.42553139,-6.496513367,8.015357971
24.07546658,17.59322929,-7.802994728,2.976073265
24.08546658,16.97109413,-8.10449028,2.942573547
24.09546658,15.69811249,-8.013563156,3.890131474
24.10546658,14.13320732,-8.276773453,5.354538918
24.10546658,14.13320732,-8.276773453,5.354538918
24.12546658,10.07497978,-7.611568928,9.876974106
24.13546658,9.357132912,-7.113861561,9.766903877
24.14546658,8.816354752,-6.36251545,9.058628082
24.15546658,8.041080475,-5.233103275,8.335995674
24.16546658,6.729813576,-4.237689018,7.474579811
24.17546658,6.729813576,-4.237689018,7.474579811
24.18546658,4.29392004,-2.232503414,8.905488014
24.19546658,4.29392004,-2.232503414,8.905488014
24.20546658,4.29392004,-2.232503414,8.905488014
24.21546658,4.29392004,-2.232503414,8.905488014
24.22546658,10.34776115,-8.458627701,32.67578888
24.23546658,14.01835155,-11.2008028,33.95833969
24.24546658,17.71286964,-14.01954746,34.92982864
24.25546658,17.71286964,-14.01954746,34.92982864
24.26546658,21.59881401,-29.36711311,29.50769043
24.27546658,17.01895142,-37.18685532,27.66521645
24.28546658,10.82154083,-48.45705032,29.76611519
24.29546658,2.260020971,-62.34499359,36.7196579
24.30546658,-8.009973526,-79.16653442,46.31009293
24.31546658,-18.13161278,-96.29436493,50.58845901
24.32546658,-37.8484726,-105.3248749,33.63770294
24.33546658,-37.8484726,-105.3248749,33.63770294
24.34546658,-37.8484726,-105.3248749,33.63770294
24.35546658,-37.8484726,-105.3248749,33.63770294
24.36546658,-7.459624767,-61.37350845,-9.906884193
24.37546658,-2.348555326,-50.17509842,-14.32403469
24.38546658,-5.626722336,-40.92444611,-7.485347271
24.39546658,-8.120043755,-39.80939102,-3.216551781
24.40546658,-8.617751122,-41.2498703,-3.25005126
24.41546658,-7.770691395,-43.61876297,-7.001997471
24.42546658,-6.780063152,-46.91128922,-11.24207878
24.43546658,-7.067201614,-49.77310562,-14.73560047
24.44546658,-7.325626373,-49.03611374,-16.81257057
24.45546658,-21.48635101,-38.27319717,-19.77967072
24.46546658,-21.66341972,-33.84647751,-15.83629799
24.47546658,-21.66341972,-33.84647751,-15.83629799
24.48546658,-21.66341972,-33.84647751,-15.83629799
