Time (s),Acceleration x (m/s^2),Acceleration y (m/s^2),Acceleration z (m/s^2)
0.051848392,3.748356581,1.940579176,9.101698875
0.060503808,3.934996843,1.758724689,8.982057571
0.070503808,4.092923164,1.744367719,8.967700958
0.080503808,4.222135544,1.777867198,8.776275635
0.090503808,4.403990269,1.667797327,8.541778564
0.100503808,4.671986103,1.533799291,8.417351723
0.110503808,4.815555573,1.34237349,8.436494827
0.120503808,4.738985062,1.261017561,8.594420433
0.130503808,4.370490551,1.643869162,8.996415138
0.140503808,4.183850288,1.883151412,9.096913338
0.150503808,4.107280254,1.969292998,9.250054359
0.160503808,4.11685133,1.935793519,9.503693581
0.170503808,4.035495281,1.926222205,9.594620705
0.180503808,3.882354736,1.940579176,9.551549911
0.190503808,3.867997885,1.792224169,9.876974106
0.200503808,3.853640795,1.730010748,10.03489971
0.210503808,3.805784464,1.624726534,10.3411808
0.220503808,4.059423447,1.648654819,10.15932655
0.230503808,4.504488468,1.911865234,9.647262573
0.240503808,4.97826767,2.122433662,8.833703041
0.250503808,5.102694511,2.184647083,8.460422516
0.260503808,4.796412945,2.821137905,8.737990379
0.270503808,4.796412945,2.821137905,8.737990379
0.280503808,4.43748951,3.534198999,9.451051712
0.290503808,4.43748951,3.534198999,9.451051712
0.300503808,4.198207378,3.433700562,9.465408325
0.310503808,4.202992916,3.079562664,9.422337532
0.320503808,4.202992916,3.079562664,9.422337532
0.330503808,4.30827713,2.538784742,9.546764374
0.340503808,4.49970293,2.447857618,9.336195946
0.350503808,4.719842434,2.443071842,9.32662487
0.360503808,4.872983456,2.457428932,9.159127235
0.370503808,5.203192711,2.519642353,8.891130447
0.380503808,5.365904808,2.730210543,9.163912773
0.390503808,5.672185898,3.060420275,9.278767586
0.400503808,5.686542988,3.041277647,9.211769104
0.410503808,5.65304327,2.969492912,9.06341362
0.420503808,5.586044312,2.868994236,8.828917503
0.430503808,5.442475319,2.806781054,8.618349075
0.440503808,5.351547718,2.854637384,8.508278847
0.450503808,5.351547718,2.854637384,8.508278847
0.460503808,5.399404526,2.979064226,8.661419868
0.470503808,5.590830326,2.912065268,8.948558807
0.480503808,5.614758492,2.514856577,8.910273552
0.490503808,5.624329567,2.385644197,8.867202759
0.500503808,5.437689304,2.663211584,8.618349075
0.510503808,5.289334297,3.022135019,8.249854088
0.520503808,5.121836662,3.337987661,8.508278847
0.530503808,5.016552448,3.141776085,8.680562019
0.540503808,4.930410862,2.739781857,8.656634331
0.550503808,4.930410862,2.222932339,8.283353806
0.560503808,5.882754326,1.983649969,8.235497475
0.570503808,6.141179085,1.974078655,8.388637543
0.580503808,5.720042706,1.897508383,8.498707771
0.590503808,5.351547718,1.926222205,8.221140862
0.600503808,5.351547718,1.926222205,8.221140862
0.610503808,5.351547718,1.926222205,8.221140862
0.620503808,4.997410297,1.80658114,7.053442955
0.630503808,5.078765869,1.715653777,6.613163471
0.640503808,5.078765869,1.715653777,6.613163471
0.650503808,5.078765869,1.715653777,6.613163471
0.660503808,5.274977684,1.275374413,5.536393166
0.670503808,5.016552448,1.040877819,5.474180222
0.680503808,4.48534584,0.849452019,5.498108387
0.690503808,3.824927092,0.710668325,5.536393166
0.700503808,3.164507866,0.581455886,5.545964718
0.710503808,2.32701993,0.466600418,4.617549419
0.720503808,2.00638175,0.409172684,3.253640652
0.730503808,1.791027784,0.323031068,1.951945066
0.740503808,1.676172256,0.404387027,0.808175862
0.750503808,1.556531072,0.576670229,-0.158524498
0.760503808,1.604387641,0.552742004,-0.809372246
0.770503808,2.666800737,-0.964307547,-0.933799028
0.780503808,2.666800737,-0.964307547,-0.933799028
0.790503808,2.666800737,-0.964307547,-0.933799028
0.800503808,2.666800737,-0.964307547,-0.933799028
0.810503808,4.638486862,-3.787838221,2.29651165
0.820503808,4.528416634,-4.563112736,2.942573547
0.830503808,3.614358664,-5.142175674,3.760919094
0.840503808,3.614358664,-5.142175674,3.760919094
0.850503808,3.614358664,-5.142175674,3.760919094
0.860503808,0.618544638,-9.066405296,6.814160824
0.870503808,-0.419940382,-10.17188931,7.321439266
0.880503808,-1.329213023,-10.94716358,8.158926964
0.890503808,-1.97527504,-11.77029419,9.202198029
0.900503808,-2.348555326,-13.89990711,11.05424213
0.910503808,-1.802991867,-15.29252911,12.19322586
0.920503808,-1.018146038,-16.83350754,12.90628719
0.930503808,-0.003589234,-18.23091507,12.87757301
0.940503808,1.518245935,-19.27897263,12.4181509
0.950503808,3.332005501,-20.26002884,11.66680527
0.960503808,6.165107727,-21.33201408,10.92981529
0.970503808,13.36271763,-23.32284164,9.656833649
0.980503808,15.76032639,-23.88276291,9.848259926
0.990503808,16.95673752,-24.04547501,11.09731293
1.000503808,17.33480453,-23.99283218,13.25563908
1.010503808,17.74636841,-23.95933342,15.36610889
1.020503808,17.74636841,-23.95933342,15.36610889
1.030503808,17.74636841,-23.95933342,15.36610889
1.040503808,17.74636841,-23.95933342,15.36610889
1.050503808,17.74636841,-23.95933342,15.36610889
1.060503808,17.74636841,-23.95933342,15.36610889
1.070503808,25.35554504,-20.00160408,13.21256828
1.080503808,25.28376007,-18.76212311,11.35573769
1.090503808,25.28376007,-18.76212311,11.35573769
1.100503808,25.28376007,-18.76212311,11.35573769
1.110503808,22.80958176,-14.55554008,6.230311871
1.120503808,22.46022987,-13.52662659,5.292325497
1.130503808,21.31167412,-12.91406345,5.469394207
1.140503808,20.84268188,-12.46899891,7.498507977
1.150503808,21.80459595,-11.62193966,8.675776482
1.160503808,25.274189,-8.64526844,7.125227451
1.170503808,27.03052139,-7.075576782,4.636692047
1.180503808,27.85843849,-5.625525951,1.372882009
1.190503808,27.04966354,-4.400400639,-2.422134638
1.200503808,25.7383976,-2.768495798,-5.489733219
1.210503808,27.74836731,-1.351944804,-6.226722717
1.220503808,27.74836731,-1.351944804,-6.226722717
1.230503808,27.74836731,-1.351944804,-6.226722717
1.240503808,27.74836731,-1.351944804,-6.226722717
1.250503808,27.06880569,-2.754138947,-6.265007973
1.260503808,26.70988274,-3.682554007,-5.274379253
1.270503808,26.29831696,-4.993820667,-4.642673969
1.280503808,26.05903435,-6.295516491,-4.144967079
1.290503808,25.80539513,-7.625925541,-1.991426587
1.300503808,25.80539513,-7.625925541,-1.991426587
1.310503808,25.37947273,-9.1860466,5.622535229
1.320503808,25.37947273,-9.1860466,5.622535229
1.320503808,26.31267357,-11.44008541,7.149155617
1.340503808,27.31287384,-15.01974773,8.723632813
1.350503808,27.31287384,-15.01974773,8.723632813
1.360503808,28.7007103,-19.07318878,6.330810547
1.370503808,29.6291256,-20.36052704,6.340381622
1.380503808,30.6963253,-21.42294121,6.239883423
1.390503808,31.95973587,-22.42314148,5.952744484
1.400503808,33.12264633,-23.55733871,5.555535793
1.410503808,34.06063461,-24.8351059,5.115256786
1.420503808,35.01776123,-26.8690052,4.899902344
1.430503808,35.01776123,-26.8690052,4.899902344
1.440503808,35.33840179,-29.77389145,6.895516872
1.450503808,35.54896927,-31.61636543,8.680562019
1.460503808,35.62554169,-33.67897797,10.65224838
1.470503808,35.63511276,-35.78944778,12.82014561
1.480503808,35.68296814,-39.7950325,17.12244034
1.490503808,35.68296814,-39.7950325,17.12244034
1.500503808,35.68296814,-39.7950325,17.12244034
1.510503808,35.52982712,-44.09732819,18.41934967
1.520503808,35.94617844,-46.80121994,16.19881058
1.530503808,35.60161209,-50.0841713,13.94955826
1.540503808,34.08934784,-53.16612625,13.31306744
1.550503808,34.08934784,-53.16612625,13.31306744
1.560503808,34.08934784,-53.16612625,13.31306744
1.570503808,34.08934784,-53.16612625,13.31306744
1.580503808,12.09930801,-53.0225563,39.26562119
1.590503808,6.576673031,-51.42415237,39.86382675
1.600503808,0.680758059,-50.17988205,36.18844986
1.610503808,0.680758059,-50.17988205,36.18844986
1.620503808,-24.78844643,-42.49413681,13.23171139
1.630503808,-31.15814018,-39.34996796,5.105685234
1.640503808,-35.82414246,-35.37788391,-0.842871785
1.650503808,-41.0357132,-28.53919601,-1.359721422
1.660503808,-40.88257217,-23.9689045,0.726819873
1.670503808,-29.34438133,-22.62413788,3.124428272
1.680503808,-29.34438133,-22.62413788,3.124428272
1.680503808,-24.76451874,-21.26501465,1.698305845
1.700503808,-18.86381721,-18.74776459,-4.245465755
1.710503808,-17.72961998,-17.02014732,-6.073582172
1.720503808,-16.67199135,-15.26381588,-6.183651924
1.730503808,-14.9156599,-14.44068432,-4.781457901
1.740503808,-14.9156599,-14.44068432,-4.781457901
1.750503808,-14.9156599,-14.44068432,-4.781457901
1.760503808,-9.177671432,-12.81356525,0.789033294
1.770503808,-8.545966148,-12.41635704,1.028315544
1.780503808,-8.009973526,-12.0670042,1.143171072
1.790503808,-7.445267677,-11.68893814,1.358525038
1.800503808,-7.445267677,-11.68893814,1.358525038
1.810503808,-5.186442852,-10.44945621,2.674577475
1.820503808,-3.640679598,-10.28195858,3.406781197
1.830503808,-1.645065546,-10.10488987,3.947559118
1.840503808,0.149551421,-9.836894035,3.942773581
1.850503808,1.470389485,-9.468399048,3.215355396
1.860503808,2.34137702,-9.209974289,2.004587173
1.870503808,2.963510752,-8.965906143,-0.550947428
1.880503808,2.925225735,-8.750552177,-1.326221943
1.890503808,2.61415863,-8.784051895,-1.65164578
1.900503808,2.350948334,-8.669196129,-1.225723386
1.910503808,2.762513638,-8.190631866,-0.062811591
1.920503808,3.815355778,-7.755138397,1.372882009
1.930503808,6.581458569,-7.788637638,1.951945066
1.940503808,7.653443336,-8.061419487,1.138385415
1.950503808,7.653443336,-8.061419487,1.138385415
1.960503808,7.653443336,-8.061419487,1.138385415
1.970503808,8.993423462,-8.946763992,-2.221137524
1.980503808,9.328418732,-8.740981102,-2.048854351
1.990503808,9.988838196,-8.74576664,-0.81894356
2.000503808,9.988838196,-8.74576664,-0.81894356
2.010503808,15.12383556,-10.75095177,2.961716175
2.020503808,16.87059593,-11.63629627,3.669991732
2.030503808,18.14836311,-12.08614731,4.134199142
2.040503808,18.5982132,-12.19143105,4.426123619
2.050503808,18.48814392,-12.05264759,4.674977303
2.060503808,17.62672806,-11.94257736,4.646263599
2.070503808,17.62672806,-11.94257736,4.646263599
2.080503808,17.62672806,-11.94257736,4.646263599
2.090503808,17.22951889,-12.46899891,4.091128349
2.100503808,16.98066521,-12.56949711,3.84706068
2.110503808,16.43510246,-12.48814106,4.019343853
2.120503808,15.43490219,-12.58385468,5.71824789
2.130503808,15.43490219,-12.58385468,5.71824789
2.140503808,15.47797298,-13.24427319,7.752147198
2.150503808,15.59761429,-13.38784313,8.072785378
2.160503808,15.81775379,-13.46441269,7.914859295
2.170503808,15.94696617,-13.71326637,7.192226887
2.180503808,15.86082458,-14.0865469,6.081956863
2.190503808,15.03769398,-14.15833187,4.402195454
2.200503808,15.03769398,-14.15833187,4.402195454
2.210503808,14.15234947,-13.57926846,4.933402061
2.220503808,13.91306686,-13.41655636,5.392824173
2.230503808,13.62114334,-13.14856052,5.828317642
2.240503808,13.716856,-12.81356525,6.431309223
2.250503808,13.716856,-12.81356525,6.431309223
2.260503808,15.95175171,-12.88056469,6.933801651
2.270503808,16.45903015,-12.6747818,6.330810547
2.280503808,16.95673752,-12.3924284,5.560321808
2.290503808,17.51187325,-12.30150127,4.526622295
2.300503808,18.05743599,-12.18664551,3.363710403
2.310503808,18.62214279,-12.02393341,2.416152716
2.320503808,20.6321125,-12.15314579,0.903888762
2.330503808,21.97209358,-11.7463665,-0.206380948
2.340503808,23.41257286,-11.18166065,-1.216152072
2.350503808,25.13061905,-10.94237804,-2.134995937
2.360503808,26.78645325,-10.74616623,-3.412763357
2.370503808,28.25564575,-10.40159988,-4.594817638
2.380503808,28.25564575,-10.40159988,-4.594817638
2.390503808,30.70111084,-10.00439167,-9.552745819
2.400503808,30.79203796,-10.02353382,-9.916455269
2.410503808,30.658041,-10.26760197,-8.916254997
2.420503808,30.06940651,-10.04267693,-6.872784615
2.430503808,29.5669136,-9.784252167,-4.523033142
2.440503808,29.61476898,-10.54516983,-2.766701221
2.450503808,30.24647522,-12.73699474,-0.220737889
2.460503808,30.40918732,-13.70848083,0.73160553
2.470503808,30.08376312,-14.80439377,1.339382529
2.480503808,29.21756172,-16.07737541,1.535593987
2.490503808,27.9732933,-17.30249977,2.167299032
2.500503808,26.90130806,-18.69990921,3.277568817
2.510503808,25.19761848,-21.6478672,4.588835716
2.520503808,25.19761848,-21.6478672,4.588835716
2.530503808,25.19761848,-21.6478672,4.588835716
2.540503808,25.19761848,-21.6478672,4.588835716
2.550503808,25.29333115,-23.98804665,6.335596085
2.560503808,25.49911499,-24.58625221,7.096513748
2.570503808,25.48954391,-25.10310173,7.843074322
2.580503808,25.48954391,-25.10310173,7.843074322
2.590503808,27.08316231,-25.08874512,9.522835732
2.600503808,28.91606522,-25.96451759,9.503693581
2.610503808,30.82075119,-27.18485832,9.403194427
2.620503808,32.62493896,-28.83111954,9.412766457
2.630503808,33.77828217,-30.54438019,9.551549911
2.640503808,34.77848053,-34.33939743,10.89153004
2.650503808,34.77848053,-34.33939743,10.89153004
2.660503808,36.40081406,-39.97210312,11.7146616
2.670503808,36.18067551,-42.20699692,11.70030499
2.680503808,34.68276596,-43.87718964,12.13579845
2.690503808,32.9168663,-46.76293182,13.37528038
2.700503808,28.26521683,-55.44887924,20.12782669
2.710503808,25.82932472,-60.47859192,24.7220459
2.720503808,21.07717896,-62.14878082,29.21098137
2.730503808,15.4109745,-60.75616074,33.67598724
2.740503808,10.33340454,-57.47799301,37.11686707
2.750503808,5.581258774,-53.34319687,39.40440369
2.760503808,-0.151944235,-48.19384003,38.84448624
2.770503808,-0.151944235,-48.19384003,38.84448624
2.780503808,-0.151944235,-48.19384003,38.84448624
2.790503808,-34.04388428,-35.54059601,18.62034798
2.800503808,-40.80599976,-32.40599823,11.2887392
2.810503808,-44.15116882,-28.14677238,6.172883987
2.820503808,-42.38047791,-25.58166695,3.818346739
2.830503808,-42.38047791,-25.58166695,3.818346739
2.840503808,-24.7980175,-20.4179554,-4.17846632
2.850503808,-24.7980175,-20.4179554,-4.17846632
2.860503808,-16.44228172,-16.09173203,-11.95992565
2.870503808,-14.65244961,-13.82812214,-14.87916946
2.880503808,-13.25982666,-12.31107235,-16.02293777
2.890503808,-11.45085239,-11.57886887,-15.10888004
2.900503808,-8.416753769,-12.33978653,-8.428119659
2.910503808,-7.454838753,-13.19641685,-4.594817638
2.920503808,-7.205985546,-13.8233366,-0.933799028
2.930503808,-7.162914753,-14.12483215,1.870589137
2.940503808,-7.162914753,-14.12483215,1.870589137
2.950503808,-7.162914753,-14.12483215,1.870589137
2.960503808,-7.162914753,-14.12483215,1.870589137
2.970503808,-7.162914753,-14.12483215,1.870589137
2.980503808,-7.162914753,-14.12483215,1.870589137
2.990503808,-3.075973511,-9.990034103,0.592821836
3.000503808,-2.027917147,-9.444471359,0.45882374
3.010503808,-1.022931695,-9.032905579,0.717248559
3.020503808,0.144765764,-8.788837433,1.363310695
3.030503808,0.144765764,-8.788837433,1.363310695
3.040503808,2.307877541,-8.831908226,2.47358036
3.050503808,2.791227579,-9.095118523,2.688934565
3.060503808,3.150151014,-9.181260109,2.717648268
3.070503808,3.427718401,-9.047262192,2.885145903
3.080503808,3.800998688,-8.822337151,3.282354355
3.090503808,4.839483738,-9.214759827,3.861417532
3.100503808,4.84905529,-9.626325607,4.545764923
3.110503808,4.695914268,-9.865608215,5.33539629
3.120503808,4.671986103,-10.01396275,6.225526333
3.130503808,5.112265587,-10.53081226,7.42672348
3.140503808,5.815755367,-11.63629627,8.733204842
3.150503808,7.462017536,-13.52184105,10.62831974
3.160503808,8.361719131,-14.38804245,10.86760235
3.170503808,8.361719131,-14.38804245,10.86760235
3.180503808,8.361719131,-14.38804245,10.86760235
3.190503808,11.32403278,-16.13958931,9.747760773
3.200503808,12.29551888,-16.64208221,9.833903313
3.210503808,13.2717905,-17.28335762,10.12582684
3.220503808,15.90868092,-19.14018822,11.56630611
3.230503808,17.78944016,-20.00160408,12.56172085
3.240503808,19.63669968,-20.45624161,13.46142197
3.250503808,20.90011024,-20.42752647,13.64327621
3.260503808,21.8237381,-19.94417763,13.30828094
3.270503808,22.50329971,-19.52304077,12.28415298
3.280503808,22.8526535,-19.59482384,9.010771751
3.290503808,21.89552307,-19.63789558,7.589435101
3.300503808,20.70389748,-19.88674927,6.809374809
3.310503808,19.40220261,-20.59502411,6.756732941
3.320503808,19.40220261,-20.59502411,6.756732941
3.330503808,16.88973808,-21.29372787,8.991629601
3.340503808,17.51187325,-21.52343941,11.33659554
3.350503808,17.51187325,-21.52343941,11.33659554
3.360503808,17.51187325,-21.52343941,11.33659554
3.370503808,25.08754921,-21.0209465,12.60957718
3.380503808,26.0398922,-20.28874397,9.374481201
3.390503808,26.01596451,-19.09711838,5.943173409
3.400503808,25.91068077,-18.19741631,3.421138287
3.410503808,25.44647217,-16.78086472,1.449452281
3.420503808,26.0398922,-16.17308807,2.138585329
3.430503808,26.0398922,-16.17308807,2.138585329
3.440503808,26.0398922,-16.17308807,2.138585329
3.450503808,28.2365036,-14.34018612,2.492722988
3.460503808,29.48555756,-13.3782711,1.109671474
3.470503808,31.26581764,-12.55992603,-0.924227774
3.480503808,33.2566452,-9.09990406,-7.719843864
3.490503808,34.37648773,-8.812766075,-11.71585751
3.500503808,35.28575897,-8.554341316,-14.71645737
3.510503808,35.36711502,-8.147561073,-16.03251076
3.520503808,34.9124794,-8.061419487,-15.7932272
3.530503808,34.28556061,-7.678567886,-14.39103317
3.540503808,34.28556061,-7.678567886,-14.39103317
3.550503808,34.28556061,-7.678567886,-14.39103317
3.560503808,34.28556061,-7.678567886,-14.39103317
3.570503808,28.28436089,-13.6031971,-3.848257065
3.580503808,28.28436089,-13.6031971,-3.848257065
3.590503808,27.50429916,-16.80479431,2.191227436
3.600503808,27.22673225,-18.21177292,3.713062525
3.610503808,27.22673225,-18.21177292,3.713062525
3.620503808,27.22673225,-18.21177292,3.713062525
3.630503808,27.22673225,-18.21177292,3.713062525
3.640503808,26.34617424,-23.63390923,-4.111467361
3.650503808,27.35594559,-24.56232452,-3.565903902
3.660503808,28.78685188,-25.73480797,-2.1302104
3.670503808,28.78685188,-25.73480797,-2.1302104
3.680503808,31.63909721,-29.24268532,3.311068296
3.690503808,32.9551506,-30.51566696,4.698905468
3.700503808,34.57748413,-32.16193008,5.885745525
3.710503808,36.6065979,-34.10968781,7.369295597
3.720503808,38.49214172,-36.65565109,8.556135178
3.730503808,38.49214172,-36.65565109,8.556135178
3.740503808,38.40599823,-43.86761856,11.92044449
3.750503808,37.32444382,-45.92065811,13.98784256
3.760503808,36.00839233,-47.26542664,16.0265274
3.770503808,34.47219849,-47.9641304,17.59143448
3.780503808,32.99822235,-48.69154739,18.78306007
3.790503808,31.77788162,-50.77808762,19.17069626
3.800503808,27.13101959,-56.98507309,20.16132545
3.810503808,22.87179565,-59.31568146,23.04706955
3.820503808,16.98066521,-58.58826065,28.92384148
3.830503808,11.137393,-55.26223755,37.29393387
3.840503808,6.299105644,-50.95037079,45.07539368
3.850503808,3.231507063,-46.87778854,48.2769928
3.860503808,0.431904495,-41.7523613,32.61835861
3.870503808,-1.597209096,-42.7812767,17.218153
3.880503808,-1.597209096,-42.7812767,17.218153
3.890503808,-1.597209096,-42.7812767,17.218153
3.900503808,-1.597209096,-42.7812767,17.218153
3.910503808,-50.22415161,-35.72245026,-12.98405361
3.920503808,-53.20082092,-29.50589561,-3.307479143
3.930503808,-53.20082092,-29.50589561,-3.307479143
3.940503808,-27.87040138,-20.50888252,15.83031654
3.950503808,-24.01317215,-17.30249977,9.494122505
3.960503808,-20.34736824,-16.74736595,1.540379524
3.970503808,-17.09791374,-16.53201103,-2.335993052
3.980503808,-15.29372597,-15.16810226,-0.62751776
3.990503808,-15.29372597,-15.16810226,-0.62751776
4.000503808,-15.56650734,-12.51685524,6.120242119
4.010503808,-15.68136311,-11.64586735,5.115256786
4.020503808,-14.60937881,-11.28215885,3.909274101
4.030503808,-12.36012554,-11.26301575,3.430709362
4.040503808,-9.560523033,-11.33480072,3.617349625
4.050503808,-6.99063158,-11.35872936,4.100699902
4.060503808,-3.358326674,-10.73180962,2.684148788
4.070503808,-2.315055847,-9.994820595,1.688734531
4.080503808,-2.315055847,-9.994820595,1.688734531
4.090503808,-0.2955136,-9.717252731,0.056829538
4.100503808,0.50368917,-9.693324089,-0.254237413
4.110503808,1.546959877,-9.741181374,0.090329058
4.120503808,1.546959877,-9.741181374,0.090329058
4.130503808,1.546959877,-9.741181374,0.090329058
4.140503808,4.997410297,-11.57408333,1.597807288
4.150503808,5.026124001,-11.57886887,1.832303882
4.160503808,4.983053207,-11.65543938,2.200798512
4.170503808,5.160121918,-11.75115204,2.516651154
4.180503808,5.160121918,-11.75115204,2.516651154
4.190503808,5.160121918,-11.75115204,2.516651154
4.200503808,7.265805721,-13.23948765,3.105285645
4.210503808,7.576872826,-13.79940796,3.445066452
4.220503808,7.734799385,-14.18225956,4.31126833
4.230503808,8.117650986,-14.44068432,5.804389477
4.240503808,8.921639442,-15.08674717,7.71864748
4.250503808,11.80738354,-17.13978767,9.900901794
4.260503808,13.75514126,-18.26441574,9.958329201
4.270503808,15.35354614,-19.17847443,9.178269386
4.280503808,16.39681625,-19.57089615,7.914859295
4.290503808,16.75095558,-19.56611061,6.536593437
4.300503808,16.53560066,-19.36511421,5.445466042
4.310503808,16.53560066,-19.36511421,5.445466042
4.320503808,16.53560066,-19.36511421,5.445466042
4.330503808,16.53560066,-19.36511421,5.445466042
4.340503808,16.31067467,-20.38924217,10.47039413
4.350503808,17.67937088,-21.2841568,12.04008579
4.360503808,18.8997097,-21.86800575,12.85843086
4.370503808,19.54577255,-21.71965027,12.49472141
4.380503808,19.54577255,-21.71965027,12.49472141
4.390503808,21.03410721,-21.16930199,7.804789066
4.400503808,21.55574226,-21.64308167,6.924230576
4.410503808,21.45524406,-22.43271255,6.555736065
4.420503808,20.41675949,-22.27957153,7.197012424
4.430503808,19.49312973,-21.66222382,8.843274117
4.440503808,19.99562263,-21.38944244,12.0352993
4.450503808,20.7565403,-20.96352005,11.67159081
4.460503808,21.49831581,-20.2552433,9.977472305
4.470503808,22.24487495,-19.56132507,7.780860901
4.480503808,23.17807579,-18.90569115,5.866602898
4.490503808,24.45584297,-17.91506386,4.397409916
4.500503808,25.85325241,-16.81915092,2.61714983
4.510503808,28.93520737,-15.02931881,-2.11585331
4.520503808,28.93520737,-15.02931881,-2.11585331
4.530503808,28.93520737,-15.02931881,-2.11585331
4.540503808,30.27518845,-12.72742367,-8.289336205
4.550503808,30.17469025,-12.31585789,-8.442476273
4.560503808,30.27518845,-11.87079334,-7.303493023
4.570503808,30.27518845,-11.87079334,-7.303493023
4.580503808,30.27518845,-11.87079334,-7.303493023
4.590503808,33.44807053,-11.74158096,-1.259222865
4.600503808,33.20878983,-11.89472103,-0.933799028
4.610503808,32.27558899,-12.03829098,-0.211166605
4.620503808,31.16531944,-12.80399418,0.487537622
4.630503808,29.82533836,-13.61755371,1.023529887
4.640503808,29.82533836,-13.61755371,1.023529887
4.650503808,27.27458954,-17.48914146,1.588235974
4.660503808,26.91087914,-18.02513313,1.535593987
4.670503808,26.8055954,-18.36491394,1.846660852
4.680503808,26.81038094,-18.71905136,2.071586132
4.690503808,26.56631279,-19.03011894,2.143370867
4.700503808,25.714468,-20.57109642,2.531008244
4.710503808,25.84368134,-22.06900406,2.947359324
4.720503808,26.81516647,-23.40898323,3.430709362
4.730503808,28.76770973,-24.9356041,4.100699902
4.740503808,31.39502907,-26.64886665,4.655834675
4.750503808,34.11327744,-28.26641464,5.215754986
4.760503808,37.97050476,-32.27678299,7.847859859
4.770503808,39.08077621,-34.53082275,9.470193863
4.780503808,39.08077621,-34.53082275,9.470193863
4.790503808,40.86582184,-40.08695602,13.45185089
4.800503808,41.25824356,-43.23112488,14.88275909
4.810503808,40.93281937,-46.15515518,15.8063879
4.820503808,39.59283829,-48.50012207,16.21795273
4.830503808,39.59283829,-48.50012207,16.21795273
4.840503808,39.59283829,-48.50012207,16.21795273
4.850503808,39.59283829,-48.50012207,16.21795273
4.860503808,31.28974533,-65.24987793,16.07917023
4.870503808,30.07897758,-70.59544373,16.72523117
4.880503808,26.84388161,-73.4141922,18.6490612
4.890503808,26.84388161,-73.4141922,18.6490612
4.900503808,14.2002058,-68.22176361,29.08655357
4.910503808,9.227920532,-64.201828,30.33560753
4.920503808,3.647858143,-60.01916885,30.64667511
4.930503808,-2.965903759,-55.65944672,29.21098137
4.930503808,-2.965903759,-55.65944672,29.21098137
4.950503808,-17.78226089,-46.05465698,21.90808678
4.960503808,-17.78226089,-46.05465698,21.90808678
4.970503808,-37.63790512,-33.49234009,2.210369825
4.980503808,-42.67240143,-29.491539,-0.536590457
4.990503808,-45.25665283,-24.12683105,2.162513494
5.000503808,-42.08376694,-22.0115757,6.297310829
5.010503808,-35.00579834,-23.44726944,7.656434059
5.020503808,-23.73560333,-20.69552231,1.573879123
5.030503808,-20.36651039,-18.33620071,-3.752544165
5.040503808,-17.17926979,-16.54158211,-8.107481003
5.050503808,-14.36052513,-14.71346664,-9.99302578
5.060503808,-14.36052513,-14.71346664,-9.99302578
5.070503808,-9.445667267,-12.35414314,-6.049654007
5.080503808,-7.517052174,-12.19621658,-2.618346214
5.090503808,-7.517052174,-12.19621658,-2.618346214
5.100503808,-4.430311203,-10.9184494,3.83270359
5.110503808,-3.434896946,-10.52602673,4.287340164
5.120503808,-2.946761131,-9.889535904,4.430909157
5.130503808,-2.568695068,-9.200403214,4.512265205
5.140503808,-2.171486616,-8.841479301,4.655834675
5.150503808,-2.171486616,-8.841479301,4.655834675
5.160503808,-2.171486616,-8.841479301,4.655834675
5.170503808,-2.171486616,-8.841479301,4.655834675
5.180503808,-2.334198475,-7.946564198,-0.665802896
5.190503808,-1.616351724,-8.382058144,-0.460020155
5.200503808,-0.472582459,-9.267401695,-0.168095797
5.210503808,-0.472582459,-9.267401695,-0.168095797
5.220503808,-0.472582459,-9.267401695,-0.168095797
5.230503808,3.231507063,-11.83729362,1.72223413
5.240503808,3.757927895,-11.97129154,1.990230203
5.250503808,4.207778454,-12.39721394,2.263011932
5.260503808,4.662415028,-12.90927792,2.497508526
5.270503808,5.184050083,-13.48355579,2.52143693
5.280503808,5.82532692,-15.09631824,1.894517303
5.290503808,5.82532692,-15.09631824,1.894517303
5.300503808,6.595815659,-16.7042942,2.80857563
5.310503808,7.442874908,-17.67099571,4.517050743
5.320503808,8.8977108,-18.80040741,6.397809505
5.330503808,10.83111191,-20.16431618,8.130212784
5.340503808,15.08076477,-23.03570366,9.738189697
5.350503808,16.51645851,-24.1076889,9.551549911
5.360503808,16.51645851,-24.1076889,9.551549911
5.370503808,16.83231163,-25.05524635,7.948358536
5.380503808,16.02353668,-25.13181686,7.460222721
5.390503808,15.04247952,-25.15095901,7.579864025
5.400503808,14.43470287,-25.34238434,8.441280365
5.410503808,14.2432766,-25.92144775,12.02572823
5.420503808,14.27677631,-26.30908585,13.75813198
5.430503808,15.14297771,-27.52463913,15.21775341
5.440503808,16.33460426,-29.17090034,16.1509552
5.450503808,16.92323875,-30.13281631,16.69651794
5.460503808,17.21037674,-30.41516876,16.84487343
5.470503808,19.29691887,-30.97509003,15.08375549
5.480503808,19.29691887,-30.97509003,15.08375549
5.490503808,19.29691887,-30.97509003,15.08375549
5.500503808,22.43630219,-28.62055206,10.34596729
5.510503808,22.43630219,-28.62055206,10.34596729
5.520503808,23.881567,-27.05085945,7.991429329
5.530503808,24.08734894,-26.18465805,7.948358536
5.540503808,24.08734894,-26.18465805,7.948358536
5.550503808,22.31187439,-24.05504608,8.125427246
5.560503808,22.17309189,-23.08834648,7.795217991
5.570503808,22.32144547,-22.12164497,7.244868755
5.580503808,22.62772751,-21.29851341,6.799803734
5.590503808,23.25943184,-20.16431618,6.560521603
5.600503808,25.74796867,-18.19741631,5.689534187
5.610503808,27.79143906,-17.30249977,4.923830986
5.620503808,30.32783127,-16.18265915,3.957130432
5.630503808,32.43830109,-14.90489197,2.234298229
5.640503808,33.86920929,-13.65105343,0.200398892
5.650503808,34.76890945,-12.65085316,-1.74735868
5.660503808,35.00340652,-12.10528946,-3.293122053
5.670503808,34.35255814,-13.65583897,-6.887141705
5.680503808,34.35255814,-13.65583897,-6.887141705
5.690503808,30.89253616,-15.44567013,-8.255836487
5.690503808,30.89253616,-15.44567013,-8.255836487
5.710503808,30.89253616,-15.44567013,-8.255836487
5.720503808,26.98266411,-18.44148445,-0.718445003
5.730503808,26.98266411,-18.44148445,-0.718445003
5.740503808,26.98266411,-18.44148445,-0.718445003
5.750503808,25.07797813,-26.31387138,4.067200184
5.760503808,24.42712975,-28.00320435,3.239283562
5.770503808,23.89113808,-29.09432983,2.933002472
5.780503808,23.78106689,-30.08495903,3.808775425
5.790503808,23.78106689,-30.08495903,3.808775425
5.800503808,22.36930275,-33.75555038,10.47996521
5.810503808,22.04387856,-34.73181915,12.15015507
5.820503808,22.326231,-35.34917068,13.42792225
5.830503808,23.84806633,-36.19622803,14.45205021
5.840503808,26.10210609,-36.97150421,15.09811306
5.850503808,28.42314339,-37.47878265,15.35175228
5.860503808,32.40958786,-39.12504196,15.67238998
5.870503808,32.40958786,-39.12504196,15.67238998
5.880503808,32.40958786,-39.12504196,15.67238998
5.890503808,32.40958786,-39.12504196,15.67238998
5.900503808,33.883564,-45.05445862,18.07478333
5.910503808,33.68735504,-45.70051956,20.39582253
5.920503808,33.68735504,-45.70051956,20.39582253
5.930503808,34.92683411,-47.79184723,29.36412048
5.940503808,34.88376617,-47.68177795,30.47439194
5.950503808,34.68276596,-47.8014183,29.36412048
5.960503808,33.85963821,-48.17948532,26.68416023
5.970503808,32.15116119,-49.08396912,23.50170517
5.980503808,29.79183769,-49.95495987,21.40080833
5.990503808,26.67638397,-55.06124115,20.23789597
6.000503808,23.66621208,-57.65984726,20.45803452
6.010503808,19.80898285,-59.39225006,21.44387817
6.020503808,15.38704586,-60.6269455,22.76950264
6.030503808,10.34776115,-62.88577271,24.40140724
6.040503808,3.135794163,-65.40302277,25.88017082
6.050503808,-21.49113655,-52.91248703,33.53720474
6.060503808,-29.65544701,-45.18367004,36.82494354
6.070503808,-32.82833099,-40.39802551,33.75255966
6.080503808,-33.67060471,-36.2440834,24.02334023
6.090503808,-33.47917938,-31.04208755,12.24108219
6.100503808,-33.06761169,-27.2566433,2.200798512
6.110503808,-33.09154129,-24.76810646,-4.915455818
6.120503808,-33.09154129,-24.76810646,-4.915455818
6.130503808,-33.09154129,-24.76810646,-4.915455818
6.140503808,-32.48854828,-19.96331978,1.516451359
6.150503808,-30.46422195,-18.92004776,4.076771736
6.160503808,-30.46422195,-18.92004776,4.076771736
6.170503808,-23.66382027,-18.71905136,5.330610752
6.180503808,-23.66382027,-18.71905136,5.330610752
6.190503808,-23.66382027,-18.71905136,5.330610752
6.200503808,-13.50868034,-16.52243996,2.554936409
6.210503808,-11.41735363,-16.11087418,2.138585329
6.220503808,-9.235098839,-15.63230991,2.454437733
6.230503808,-7.028916359,-15.35952854,3.124428272
6.240503808,-3.186043262,-15.08674717,4.244269371
6.250503808,-1.673779488,-14.9718914,4.48833704
6.260503808,-0.24765715,-15.09153271,4.406980991
6.270503808,0.886540771,-15.26860142,4.225126743
6.280503808,1.78145647,-15.39302826,3.890131474
6.290503808,2.274377823,-15.24467278,3.483351469
6.300503808,2.446661234,-14.70389557,3.172284603
6.310503808,2.446661234,-14.70389557,3.172284603
6.320503808,2.446661234,-14.70389557,3.172284603
6.330503808,2.446661234,-14.70389557,3.172284603
6.340503808,4.648057938,-14.00040531,1.832303882
6.350503808,5.499902725,-14.41197109,1.411167145
6.360503808,5.499902725,-14.41197109,1.411167145
6.370503808,5.499902725,-14.41197109,1.411167145
6.380503808,8.222934723,-17.34557152,0.358325183
6.390503808,9.534201622,-18.38405609,1.004387259
6.400503808,11.67817116,-20.04946136,2.052443504
6.410503808,14.44427395,-21.79622078,3.36849618
6.420503808,16.78923988,-22.93041992,3.650849104
6.430503808,18.24886131,-22.94956207,2.961716175
6.440503808,19.42134476,-21.11187363,0.812961519
6.450503808,19.71805573,-20.55673981,0.186041966
6.460503808,19.67976952,-20.11167526,0.238684058
6.470503808,19.33520317,-19.71925163,0.765105069
6.480503808,18.8374958,-19.71446609,1.535593987
6.490503808,18.56471443,-20.30310059,2.41136694
6.500503808,18.56471443,-20.30310059,2.41136694
6.510503808,18.56471443,-20.30310059,2.41136694
6.520503808,18.56471443,-20.30310059,2.41136694
6.530503808,18.56471443,-20.30310059,2.41136694
6.540503808,20.7948246,-19.56132507,7.163512707
6.550503808,20.32583237,-18.57069588,6.761518478
6.560503808,19.51705742,-17.73799515,6.254240036
6.570503808,19.51705742,-17.73799515,6.254240036
6.580503808,16.92323875,-15.49352646,6.637091637
6.590503808,16.40638924,-14.90967751,7.058228493
6.600503808,15.98046589,-14.30190086,7.168298244
6.610503808,15.774683,-14.0434761,7.096513748
6.620503808,15.8368969,-14.09133244,7.024729252
6.630503808,15.58804321,-13.43569946,6.354738712
6.640503808,15.5545435,-12.86142159,6.120242119
6.650503808,15.50190163,-12.4929266,5.766104221
6.660503808,15.50190163,-12.4929266,5.766104221
6.670503808,14.97069454,-11.49272728,5.282754421
6.680503808,14.76012611,-11.10987568,4.713262558
6.690503808,15.01376534,-10.82273674,4.263411522
6.700503808,15.01376534,-10.82273674,4.263411522
6.710503808,15.01376534,-10.82273674,4.263411522
6.720503808,18.92363739,-11.8468647,2.052443504
6.730503808,19.55055809,-11.89950657,1.095314622
6.740503808,20.73739815,-11.49751282,0.061615184
6.750503808,22.64686966,-11.13380337,-1.278365493
6.760503808,22.64686966,-11.13380337,-1.278365493
6.770503808,22.64686966,-11.13380337,-1.278365493
6.780503808,28.97349358,-13.08156109,-7.523632526
6.790503808,29.86362267,-15.22553062,-7.782057285
6.800503808,30.29911613,-16.48415565,-7.198208809
6.810503808,30.76811028,-16.88136292,-6.26979351
6.820503808,32.36172867,-16.98186302,-4.566103935
6.830503808,32.85943604,-17.56092453,-4.628317356
6.840503808,33.04129028,-18.51805496,-5.145166874
6.850503808,32.93122101,-19.52304077,-5.796014786
6.860503808,32.06502151,-21.00658989,-6.379863262
6.870503808,31.00260735,-22.27957153,-5.815157413
6.880503808,30.0311203,-23.05006027,-4.049253941
6.890503808,28.9017086,-25.40938377,1.746162295
6.900503808,28.55714226,-26.70150757,4.148556232
6.910503808,28.55714226,-26.70150757,4.148556232
6.920503808,28.24128914,-30.19502831,5.723033428
6.930503808,28.10250473,-31.9513607,5.660820007
6.940503808,28.59064102,-33.73640823,5.909673691
6.950503808,28.59064102,-33.73640823,5.909673691
6.960503808,33.2566452,-39.23032761,7.584649563
6.970503808,33.2566452,-39.23032761,7.584649563
6.980503808,36.44866943,-42.24049759,8.881559372
6.990503808,37.33880234,-44.12125778,9.886545181
7.000503808,37.23351669,-46.65286255,11.03031445
7.010503808,36.09453201,-48.87340164,12.59043407
7.020503808,32.83072281,-52.77848816,15.70110416
7.030503808,31.25146103,-54.09453964,15.6053915
7.040503808,30.52882767,-55.30052567,14.60519123
7.050503808,30.8590374,-57.36313629,13.51406384
7.060503808,30.8590374,-57.36313629,13.51406384
7.070503808,30.23211861,-64.41717529,12.32243824
7.080503808,30.23211861,-64.41717529,12.32243824
7.090503808,30.23211861,-64.41717529,12.32243824
7.100503808,14.00399494,-72.03592682,33.56591797
7.110503808,10.03190899,-69.12625122,41.40480423
7.120503808,5.997610092,-67.42735291,43.57748795
7.130503808,-0.4869394,-65.61837769,40.73960114
7.140503808,-8.33539772,-62.05307007,35.90609741
7.150503808,-25.99921417,-52.61577606,16.9549427
7.160503808,-25.99921417,-52.61577606,16.9549427
7.170503808,-25.99921417,-52.61577606,16.9549427
7.180503808,-47.47240448,-31.17608643,-10.82094193
7.190503808,-47.64468765,-28.30469894,-13.2520504
7.200503808,-44.24687958,-26.0650177,-13.65882969
7.210503808,-44.24687958,-26.0650177,-13.65882969
7.220503808,-44.24687958,-26.0650177,-13.65882969
7.230503808,-16.03550148,-19.17847443,-7.715058327
7.240503808,-14.23131275,-17.88634872,-11.23250771
7.250503808,-14.88216019,-16.23051643,-15.68794346
7.260503808,-15.9876442,-14.00997639,-17.07578087
7.270503808,-15.9876442,-14.00997639,-17.07578087
7.280503808,-13.26939774,-12.3924284,-8.854042053
7.290503808,-12.33141136,-12.19143105,-5.628517151
7.300503808,-11.65663528,-11.9090786,-2.905484915
7.310503808,-10.90050316,-11.83729362,-0.804586589
7.320503808,-9.72323513,-11.75115204,0.961316526
7.330503808,-8.392825127,-11.55972576,2.492722988
7.340503808,-5.794219971,-10.90887833,4.048057556
7.350503808,-4.511667252,-10.31067276,4.301696777
7.360503808,-4.511667252,-10.31067276,4.301696777
7.370503808,-1.539781332,-9.879964828,3.263211966
7.380503808,-0.104087785,-9.817750931,2.033301115
7.390503808,1.111466169,-9.789037704,0.36311084
7.400503808,1.111466169,-9.789037704,0.36311084
7.410503808,1.111466169,-9.789037704,0.36311084
7.420503808,1.111466169,-9.789037704,0.36311084
7.430503808,4.619344234,-9.348757744,-3.594617844
7.440503808,4.786841869,-9.138189316,-3.178266764
7.450503808,4.901697159,-9.114261627,-2.699702263
7.460503808,4.901697159,-9.114261627,-2.699702263
7.470503808,4.901697159,-9.114261627,-2.699702263
7.480503808,6.490531445,-10.13360405,-0.349950314
7.490503808,7.351947784,-10.88016415,0.487537622
7.500503808,8.304290771,-11.65065384,1.124028444
7.510503808,9.505488396,-12.6747818,1.664806366
7.520503808,11.19960594,-13.75633717,2.502294302
7.530503808,14.99462318,-15.28295803,4.215555191
7.540503808,16.36810303,-15.28295803,4.698905468
7.550503808,17.02852249,-14.80917931,5.081757069
7.560503808,17.50230217,-14.56511116,5.67039156
7.570503808,17.93779564,-14.89532089,6.19681263
7.580503808,17.89472389,-15.18724537,6.397809505
7.590503808,17.6315136,-15.3978138,6.512664795
7.600503808,18.77528381,-16.48415565,6.37388134
7.610503808,19.74676895,-16.53201103,5.478965759
7.620503808,19.74676895,-16.53201103,5.478965759
7.630503808,19.74676895,-16.53201103,5.478965759
7.640503808,19.74676895,-16.53201103,5.478965759
7.650503808,20.60818481,-15.67538071,2.50707984
7.660503808,20.60818481,-15.67538071,2.50707984
7.670503808,20.60818481,-15.67538071,2.50707984
7.680503808,16.54995728,-13.88554955,3.306282759
7.690503808,15.49711609,-13.87597847,3.44985199
7.700503808,14.46820259,-14.0434761,3.497708559
7.710503808,13.72642708,-15.01974773,3.445066452
7.720503808,13.44885921,-16.11087418,3.617349625
7.730503808,14.19542027,-16.45544052,4.445266247
7.740503808,15.18604851,-16.59901047,4.306482315
7.750503808,16.54995728,-16.90529251,3.73699069
7.760503808,17.77508354,-17.0919323,2.909074068
7.770503808,18.60778618,-17.06321907,1.72223413
7.780503808,19.14377785,-16.89572144,0.650249541
7.790503808,19.30170441,-16.14437485,-1.37886405
7.800503808,19.70848465,-15.67059517,-1.933998942
7.810503808,20.06740761,-14.57468319,-2.254637241
7.820503808,20.45025826,-13.50269794,-2.584846735
7.830503808,21.23989105,-12.88535023,-3.020340443
7.840503808,22.34537506,-12.35414314,-3.331407309
7.850503808,24.74298286,-11.85643578,-4.025325775
7.860503808,25.59961319,-11.73200989,-4.489533424
7.870503808,26.26003265,-11.6267252,-4.676173687
7.880503808,26.26003265,-11.6267252,-4.676173687
7.890503808,26.93959427,-11.75115204,-4.953741074
7.900503808,27.22194672,-11.98564816,-5.575874805
7.910503808,27.38465881,-12.33978653,-6.418148518
7.920503808,27.38465881,-12.33978653,-6.418148518
7.930503808,27.38465881,-12.33978653,-6.418148518
7.940503808,27.83929443,-16.34058571,-6.035296917
7.950503808,27.75315285,-17.09671783,-4.034897327
7.960503808,27.93979454,-18.14477348,-2.087139606
7.970503808,28.14557648,-19.27418709,-0.77108711
7.980503808,28.35614395,-20.45624161,-0.847657442
7.990503808,28.38007355,-21.39901352,-2.201995134
8.000503808,28.5619278,-22.63370895,-3.364906788
8.010503808,28.72463989,-24.41875458,-3.642474174
8.020503808,28.48057175,-26.59143829,-2.704487801
8.030503808,28.27000237,-28.826334,-0.938584685
8.040503808,28.2365036,-30.90809059,1.387238979
8.050503808,29.12663269,-33.46362305,6.091528416
8.060503808,30.02154922,-34.26761246,7.699504852
8.070503808,30.94039345,-34.70310593,8.690134048
8.080503808,31.79223824,-35.11467361,8.867202759
8.090503808,32.45265579,-36.0287323,8.335995674
8.100503808,33.17528915,-37.70370483,7.42672348
8.110503808,35.98925018,-42.45106506,6.110671043
8.120503808,35.98925018,-42.45106506,6.110671043
8.130503808,35.98925018,-42.45106506,6.110671043
8.140503808,40.86582184,-51.37629318,8.58006382
8.150503808,40.61696625,-54.97510147,10.57089233
8.160503808,40.61696625,-54.97510147,10.57089233
8.170503808,36.2428894,-63.73761749,17.7206459
8.180503808,31.49074173,-75.58209229,28.98126984
8.190503808,28.10729027,-78.89854431,33.68077469
8.200503808,23.97727966,-81.1812973,36.80101395
8.210503808,18.12443542,-80.49694824,37.48057556
8.220503808,10.55832958,-76.37650299,36.26502228
8.230503808,2.298306227,-71.83493042,33.2069931
8.240503808,-17.82533264,-60.19145203,26.75115967
8.250503808,-27.53062057,-57.04249954,21.25245285
8.260503808,-38.76731491,-52.37170792,11.74816132
8.270503808,-38.76731491,-52.37170792,11.74816132
8.280503808,-54.67001724,-33.67897797,-8.399405479
8.290503808,-54.67001724,-33.67897797,-8.399405479
8.300503808,-54.67001724,-33.67897797,-8.399405479
8.310503808,-54.67001724,-33.67897797,-8.399405479
8.320503808,-54.67001724,-33.67897797,-8.399405479
8.330503808,-19.60559273,-20.91566277,-13.68275833
8.340503808,-18.20818329,-19.15933037,-15.24287891
8.350503808,-17.94975853,-17.18285942,-15.3290205
8.360503808,-17.47598076,-15.50309753,-13.31904888
8.370503808,-17.47598076,-15.50309753,-13.31904888
8.380503808,-13.6666069,-14.7326088,-4.039682865
8.390503808,-12.8386898,-14.82832146,-1.292722464
8.400503808,-12.30269718,-14.3066864,1.516451359
8.410503808,-11.35035419,-13.46441269,3.722633839
8.420503808,-9.66580677,-12.89970684,4.517050743
8.430503808,-4.91366148,-12.23928738,2.727219582
8.440503808,-2.429911375,-11.51186943,1.516451359
8.450503808,-0.305084884,-10.73180962,0.305683106
8.460503808,1.35074842,-9.966106415,-0.804586589
8.470503808,2.51844573,-9.229117393,-1.646860242
8.480503808,3.336791277,-8.697910309,-2.173281193
8.490503808,3.858426571,-8.477770805,-2.302493572
8.500503808,3.858426571,-8.477770805,-2.302493572
8.510503808,3.858426571,-8.477770805,-2.302493572
8.520503808,3.858426571,-8.477770805,-2.302493572
8.530503808,3.858426571,-8.477770805,-2.302493572
8.540503808,4.064209461,-8.798408508,-0.522233546
8.550503808,3.422932863,-7.951349735,-0.364307255
8.560503808,3.422932863,-7.951349735,-0.364307255
8.570503808,3.422932863,-7.951349735,-0.364307255
8.580503808,6.117250919,-8.659625053,1.167099237
8.590503808,7.189235687,-8.946763992,1.612164259
8.600503808,8.23729229,-9.15733242,2.353939295
8.610503808,9.806983948,-9.607182503,3.095714331
8.620503808,11.74516964,-10.3776722,3.77049017
8.630503808,14.39641762,-11.73679543,3.717848301
8.640503808,14.39641762,-11.73679543,3.717848301
8.650503808,14.95633793,-12.59342575,2.29651165
8.660503808,14.55912971,-12.79920864,1.683948994
8.670503808,13.99442291,-12.88056469,1.765304923
8.680503808,13.84606838,-13.07677555,2.583650351
8.690503808,14.39163208,-13.7611227,4.952544689
8.700503808,14.54955769,-14.04826164,6.005386829
8.710503808,14.54955769,-14.04826164,6.005386829
8.720503808,14.54955769,-14.04826164,6.005386829
8.730503808,13.12343597,-14.71346664,7.613363266
8.740503808,13.09950733,-14.97667694,7.977072716
8.750503808,13.63071442,-16.07737541,8.106285095
8.760503808,13.63071442,-16.07737541,8.106285095
8.770503808,14.78405476,-18.38405609,7.168298244
8.780503808,16.04746437,-19.57568169,7.201797962
8.790503808,16.04746437,-19.57568169,7.201797962
8.790503808,17.61237144,-20.43709755,7.287939548
8.810503808,20.22533417,-20.59023857,6.541378975
8.820503808,20.22533417,-20.59023857,6.541378975
8.820503808,22.06780624,-19.63311005,5.220541
8.840503808,22.98186493,-18.71426582,4.043272018
8.850503808,23.216362,-18.90569115,3.708276987
8.860503808,23.30250359,-18.73340797,3.397209883
8.870503808,23.45085907,-18.1591301,3.153141975
8.880503808,24.86262321,-16.94836235,2.511865616
8.890503808,25.41775894,-16.17787361,1.72223413
8.900503808,25.54697037,-15.3978138,0.425324231
8.910503808,25.35554504,-14.77089405,-1.359721422
8.920503808,25.13061905,-13.81855106,-3.187838078
8.930503808,24.8482666,-12.68435287,-4.499104977
8.940503808,24.8482666,-12.68435287,-4.499104977
8.950503808,24.8482666,-12.68435287,-4.499104977
8.960503808,24.8482666,-12.68435287,-4.499104977
8.970503808,24.8482666,-12.68435287,-4.499104977
8.980503808,32.21815872,-12.62213898,0.640678287
8.990503808,33.96492004,-12.91406345,0.477966309
9.000503808,36.22853088,-13.88554955,0.908674419
9.010503808,36.22853088,-13.88554955,0.908674419
9.020503808,39.65026855,-17.14457512,2.483151674
9.030503808,39.26263046,-19.47518349,1.889731646
9.040503808,38.5017128,-21.81536484,1.62652123
9.050503808,37.27180099,-23.28455734,2.124228239
9.060503808,35.63032532,-24.56711006,3.387638569
9.070503808,33.69692612,-25.62473679,5.20618391
9.080503808,31.69174004,-27.93141937,9.331410408
9.090503808,31.26581764,-29.11347389,10.69531918
9.100503808,30.57189941,-30.18067169,11.54237843
9.110503808,29.76312447,-30.96551704,12.05922794
9.120503808,29.15056229,-31.62593651,12.20279694
9.130503808,29.11706161,-32.8032074,12.36550903
9.140503808,28.42792892,-35.82294846,14.07398415
9.150503808,28.23171806,-37.40699768,15.49532127
9.160503808,28.43271446,-39.24946976,16.61994743
9.170503808,28.43271446,-39.24946976,16.61994743
9.180503808,30.41397285,-43.00141525,16.75873184
9.190503808,32.14159012,-45.15495682,15.6436758
9.200503808,33.56771088,-47.55256271,14.22233963
9.210503808,34.53441238,-52.04628372,12.57129192
9.220503808,34.39562988,-55.52066422,12.43250847
9.230503808,34.18027496,-60.43073654,13.07378483
9.240503808,33.28535843,-66.54200745,14.62911987
9.250503808,30.02154922,-70.78208923,17.07458496
9.260503808,25.09233475,-72.85427094,19.82154465
9.270503808,12.32901859,-69.19803619,25.77010155
9.280503808,3.973282099,-64.23532104,28.51706123
9.290503808,-4.794020176,-58.51169205,30.49353409
9.300503808,-13.80060482,-52.59185028,31.03431129
9.310503808,-23.42453766,-46.02115631,27.69393158
9.320503808,-31.83291626,-40.10610199,20.19482422
9.330503808,-45.13222504,-29.65903664,2.052443504
9.340503808,-49.88915634,-23.75354958,-3.460619688
9.350503808,-50.62614441,-19.41296959,-3.364906788
9.360503808,-45.92185593,-17.74756622,1.286740422
9.370503808,-37.8484726,-17.50349808,6.440880299
9.380503808,-28.58346367,-18.24527359,9.144769669
9.390503808,-20.60100746,-19.51346779,8.388637543
9.400503808,-20.60100746,-19.51346779,8.388637543
9.410503808,-20.60100746,-19.51346779,8.388637543
9.420503808,-20.60100746,-19.51346779,8.388637543
9.430503808,-9.412167549,-14.08176136,-3.77647233
9.440503808,-7.861618996,-13.53619766,-2.335993052
9.450503808,-6.047859192,-13.04806232,-0.034097724
9.460503808,-6.047859192,-13.04806232,-0.034097724
9.470503808,-0.372083932,-11.26780224,5.761318684
9.480503808,0.561116934,-10.3346014,6.096313953
9.490503808,0.819541752,-9.233902931,5.531607628
9.500503808,0.747757077,-8.276773453,4.253840446
9.510503808,0.685543716,-7.630711555,2.784647465
9.520503808,0.766899645,-7.252645493,1.425524116
9.530503808,0.766899645,-7.252645493,1.425524116
9.540503808,1.628315806,-8.860622406,-0.751944542
9.550503808,2.078166485,-9.477970123,-0.550947428
9.560503808,2.963510752,-9.717252731,0.142971158
9.570503808,4.045066833,-9.578469276,0.592821836
9.580503808,4.705485821,-9.195617676,0.841675341
9.590503808,4.705485821,-9.195617676,0.841675341
9.600503808,4.705485821,-9.195617676,0.841675341
9.610503808,4.705485821,-9.195617676,0.841675341
9.620503808,4.705485821,-9.195617676,0.841675341
9.630503808,6.480959892,-10.15753174,-2.111067772
9.640503808,7.806583881,-10.717453,-1.3310076
9.650503808,9.40977478,-11.34915733,-0.555733085
9.660503808,9.40977478,-11.34915733,-0.555733085
9.670503808,14.33420372,-13.24905872,2.511865616
9.680503808,15.78904057,-14.47896957,2.775076151
9.690503808,16.52124405,-14.689538,2.286940336
9.700503808,16.64566994,-14.48375511,1.727019787
9.710503808,16.64566994,-14.57468319,1.344168067
9.720503808,16.96630859,-15.2542448,0.650249541
9.730503808,17.12423515,-15.44567013,0.789033294
9.740503808,17.23908997,-15.72323799,1.238883972
9.750503808,17.2055912,-15.66102409,1.712662816
9.760503808,17.15294838,-15.64188194,2.100300074
9.770503808,17.15773392,-16.34058571,2.334796667
9.780503808,17.28216171,-16.84307861,2.650649309
9.790503808,17.27737617,-16.48415565,3.574278831
9.800503808,17.37308884,-16.5655117,3.507279873
9.810503808,17.62672806,-17.08236122,3.191427231
9.820503808,17.62672806,-17.08236122,3.191427231
9.830503808,18.45464516,-17.55135345,2.545365095
9.840503808,18.48814392,-17.19721603,2.349153519
9.850503808,18.48814392,-17.19721603,2.349153519
9.860503808,18.48814392,-17.19721603,2.349153519
9.870503808,18.48814392,-17.19721603,2.349153519
9.880503808,21.48395729,-18.27398682,1.076171994
9.890503808,21.48395729,-18.27398682,1.076171994
9.900503808,23.44128609,-19.07797432,1.889731646
9.910503808,25.7766819,-18.90090561,1.889731646
9.920503808,26.83909607,-18.49412537,0.540179729
9.930503808,27.35594559,-17.41735649,-1.680359721
9.940503808,27.35594559,-17.41735649,-1.680359721
9.950503808,27.35594559,-17.41735649,-1.680359721
9.960503808,27.70051193,-14.88574982,-8.930612564
9.970503808,28.54757118,-14.85703564,-8.863613129
9.980503808,28.54757118,-14.85703564,-8.863613129
9.990503808,28.54757118,-14.85703564,-8.863613129
10.00050381,35.58725357,-18.5228405,2.004587173
10.01050381,35.85046387,-19.3890419,3.55992198
10.02050381,34.43391418,-20.13560295,4.033700943
10.03050381,31.76831055,-21.15494537,3.746562004
10.04050381,26.48495674,-22.6528511,3.095714331
10.05050381,26.48495674,-22.6528511,3.095714331
10.06050381,25.37468719,-24.04547501,2.933002472
10.07050381,25.97289276,-24.17947197,3.789632797
10.08050381,25.95853615,-23.94976234,4.440480709
10.09050381,25.95853615,-23.94976234,4.440480709
10.10050381,23.06800652,-22.52363968,5.397609711
10.11050381,23.06800652,-22.52363968,5.397609711
10.12050381,23.06800652,-22.52363968,5.397609711
10.13050381,17.07159233,-22.03550339,7.694719315
10.14050381,16.0378933,-22.68156624,8.144570351
10.15050381,15.16690636,-23.10270309,8.771489143
10.16050381,14.61655712,-22.70070839,9.920044899
10.17050381,14.61655712,-22.70070839,9.920044899
10.18050381,25.69054031,-26.97428894,12.56172085
10.19050381,31.8496666,-29.67817879,12.22672558
10.20050381,31.8496666,-29.67817879,12.22672558
10.21050381,39.46362686,-33.84169006,10.55653572
10.22050381,45.68975067,-41.89593124,9.369695663
10.23050381,50.85824966,-48.95475769,9.364909172
10.24050381,50.85824966,-48.95475769,9.364909172
10.25050381,50.85824966,-48.95475769,9.364909172
10.26050381,50.85824966,-48.95475769,9.364909172
10.27050381,43.6223526,-75.04131317,17.13679695
10.28050381,36.57788467,-81.94221497,18.7495594
10.29050381,28.50449944,-86.52207184,23.35813713
10.30050381,28.50449944,-86.52207184,23.35813713
10.31050381,28.50449944,-86.52207184,23.35813713
10.32050381,-0.051445685,-64.02475739,35.98745346
10.33050381,-6.818347931,-59.37310791,30.01496887
10.34050381,-13.4273243,-53.81218719,23.56870461
10.35050381,-17.94018745,-51.6155777,15.72981739
10.36050381,-32.63211823,-43.75276184,-3.163909674
10.37050381,-39.82015991,-34.55953598,-8.260622025
10.38050381,-42.08376694,-28.35255623,-8.858827591
10.39050381,-38.83909988,-27.25185776,-6.820142746
10.40050381,-33.29253769,-26.78286362,-3.671188116
10.41050381,-28.39682198,-24.90210533,-1.015154958
10.42050381,-28.39682198,-24.90210533,-1.015154958
10.43050381,-28.39682198,-24.90210533,-1.015154958
10.44050381,-18.29911041,-20.15953064,-6.2841506
10.45050381,-18.19382668,-17.85284996,-7.456633568
10.46050381,-17.18884087,-16.18265915,-7.43749094
10.47050381,-15.76750469,-14.84746456,-6.796214581
10.48050381,-14.1930275,-13.50269794,-5.738586903
10.49050381,-14.1930275,-13.50269794,-5.738586903
10.50050381,-14.1930275,-13.50269794,-5.738586903
10.51050381,-6.430710793,-11.1003046,-2.120639086
10.52050381,-6.430710793,-11.1003046,-2.120639086
10.53050381,-2.683550596,-11.25823021,-1.340578914
10.54050381,-1.056431174,-11.2438736,-1.2352947
10.55050381,0.049052864,-11.10509014,-1.498505235
10.56050381,2.322234392,-11.26780224,-1.613360643
10.57050381,4.073780537,-11.7463665,-1.450648785
10.58050381,5.782256126,-12.4929266,-1.555932879
10.59050381,7.404589653,-13.54576874,-1.847857237
10.60050381,8.634500504,-14.45504189,-2.240280151
10.61050381,9.328418732,-14.74217987,-2.570489645
10.62050381,9.002995491,-13.47398472,-1.967498422
10.63050381,8.993423462,-12.84227943,-1.029511929
10.64050381,9.649057388,-12.84227943,-0.058025949
10.65050381,9.649057388,-12.84227943,-0.058025949
10.66050381,11.2378912,-12.80877972,0.669392109
10.67050381,11.2378912,-12.80877972,0.669392109
10.68050381,11.64467144,-13.10070419,0.233898416
10.69050381,11.64467144,-13.10070419,0.233898416
10.70050381,11.64467144,-13.10070419,0.233898416
10.71050381,10.09412193,-15.8380928,1.473380566
10.72050381,10.28554821,-16.59901047,2.397010088
10.73050381,10.87896824,-16.91964912,3.555136204
10.74050381,11.81695461,-17.24507332,4.483551502
10.75050381,11.81695461,-17.24507332,4.483551502
10.76050381,15.32961845,-17.04407501,4.50269413
10.77050381,16.0761795,-16.68993759,3.674777269
10.78050381,16.65045547,-16.37887192,2.770290375
10.79050381,17.2678051,-16.47937012,2.05722928
10.80050381,18.12922096,-16.91486359,1.712662816
10.81050381,18.85663795,-17.32642937,1.48295188
10.82050381,18.59342766,-17.29771423,0.750748098
10.83050381,18.41157341,-16.90050697,0.846460998
10.84050381,18.46900177,-16.68515205,1.124028444
10.85050381,18.89492416,-16.55594063,1.439880967
10.86050381,19.63669968,-16.46979904,1.650449395
10.87050381,20.4311161,-16.25922966,1.545165181
10.88050381,20.4311161,-16.25922966,1.545165181
10.89050381,20.4311161,-16.25922966,1.545165181
10.90050381,19.05285072,-13.92862034,-0.756730139
10.91050381,18.7992115,-14.12483215,-0.397806764
10.92050381,18.46900177,-14.55075455,0.353539556
10.93050381,17.71765518,-14.81396484,1.128814101
10.94050381,17.71765518,-14.81396484,1.128814101
10.95050381,17.71765518,-14.81396484,1.128814101
10.96050381,17.12902069,-12.83270741,5.120042324
10.97050381,17.60280037,-12.11964703,5.837889194
10.98050381,18.11007881,-11.56451225,6.421737671
10.99050381,18.23929024,-10.93759251,6.493522644
11.00050381,18.27279091,-10.26281643,6.38823843
11.01050381,19.00977898,-9.82732296,5.909673691
11.02050381,20.17747688,-9.588040352,5.627320766
11.03050381,21.78066826,-9.64068222,5.163113117
11.04050381,23.77628136,-9.69811058,4.47397995
11.05050381,26.03510666,-9.650253296,3.775275946
11.06050381,27.92543602,-9.674181938,2.990430117
11.07050381,30.01197815,-10.30588722,0.559322298
11.08050381,30.73939514,-11.61236858,-0.536590457
11.09050381,30.80160904,-13.46919823,-1.412363529
11.10050381,30.33261681,-15.0723896,-1.450648785
11.11050381,29.39941597,-16.20658684,-0.359521598
11.12050381,28.84906578,-17.06800461,1.593021631
11.13050381,28.77728081,-17.56092453,3.497708559
11.14050381,28.77728081,-17.56092453,3.497708559
11.15050381,28.77728081,-17.56092453,3.497708559
11.16050381,28.77728081,-17.56092453,3.497708559
11.17050381,26.43231583,-18.71905136,-3.183052301
11.18050381,25.58525658,-20.48495483,-3.029911757
11.19050381,24.93919373,-22.35135651,-1.168295622
11.20050381,24.93919373,-22.35135651,-1.168295622
11.21050381,24.69512558,-26.86421967,6.637091637
11.22050381,25.00140762,-27.13700104,7.474579811
11.23050381,25.6139698,-27.47199631,6.737590313
11.24050381,26.09253502,-28.0223465,5.134399414
11.25050381,26.81038094,-28.38605499,4.177269936
11.26050381,28.67678261,-30.03231621,4.191627026
11.27050381,34.22813034,-35.87559128,7.010372162
11.28050381,37.41537094,-39.43611145,9.29791069
11.29050381,40.67918015,-44.4131813,11.26002502
11.30050381,43.81856537,-50.97908783,12.52343559
11.31050381,46.12524414,-57.86084366,13.28913879
11.32050381,46.48416901,-64.46025085,14.21755409
11.33050381,46.48416901,-64.46025085,14.21755409
11.34050381,33.40499878,-80.66444397,20.06082726
11.35050381,33.40499878,-80.66444397,20.06082726
11.36050381,29.70569611,-91.26464844,22.18086815
11.37050381,26.72423935,-94.82995605,21.62094688
11.38050381,20.0913353,-94.40882111,23.33420753
11.39050381,20.0913353,-94.40882111,23.33420753
11.40050381,20.0913353,-94.40882111,23.33420753
11.41050381,-18.09332848,-57.99962616,26.69373131
11.42050381,-21.02692986,-53.07998657,20.4436779
11.43050381,-23.90310097,-49.80181885,7.536793232
11.44050381,-28.12882614,-44.14518356,-8.016553879
11.45050381,-31.93341446,-36.26322556,-20.22473526
11.46050381,-31.93341446,-36.26322556,-20.22473526
11.47050381,-35.44607925,-20.13560295,-19.44946098
11.48050381,-30.48814964,-18.57069588,-10.75872898
11.49050381,-25.11387062,-18.52762604,-4.259822369
11.50050381,-25.11387062,-18.52762604,-4.259822369
11.51050381,-17.10748482,-16.80000687,-0.349950314
11.52050381,-17.10748482,-16.80000687,-0.349950314
11.53050381,-17.10748482,-16.80000687,-0.349950314
11.54050381,-10.31186962,-10.6983099,-5.599802971
11.55050381,-8.694320679,-10.03789139,-5.097310543
11.55050381,-8.694320679,-10.03789139,-5.097310543
11.57050381,-5.574080467,-9.013762474,-1.718644857
11.58050381,-4.047459602,-8.539983749,0.224327117
11.59050381,-1.793420553,-8.018348694,2.478366137
11.60050381,-1.190429211,-7.970492363,2.88993144
11.61050381,-0.841077149,-7.534998417,3.023929596
11.62050381,-0.496510684,-7.032505512,2.952144861
11.63050381,-0.496510684,-7.032505512,2.952144861
11.64050381,0.872183859,-7.582854748,2.483151674
11.65050381,0.872183859,-7.582854748,2.483151674
11.66050381,0.872183859,-7.582854748,2.483151674
11.67050381,0.872183859,-7.582854748,2.483151674
11.68050381,6.586244106,-9.851250648,1.315454245
11.69050381,7.399804115,-10.73659515,0.535394073
11.70050381,7.931010723,-11.12423229,0.104685992
11.71050381,7.959724426,-10.47817039,-0.158524498
11.72050381,8.280363083,-8.755337715,0.82731843
11.73050381,9.041280746,-9.052047729,1.023529887
11.74050381,10.00319481,-9.722038269,0.879960537
11.75050381,10.00319481,-9.722038269,0.879960537
11.76050381,11.41496086,-11.85165024,0.209970191
11.77050381,11.75474167,-12.6747818,0.851246655
11.78050381,13.23350525,-12.65085316,5.024329185
11.79050381,15.01855087,-13.05284786,6.641877651
11.80050381,17.105093,-13.97169113,6.766304016
11.81050381,18.79442596,-14.83789349,4.962115765
11.82050381,19.55534363,-15.16331673,1.81794703
11.83050381,19.60319901,-15.17767429,-1.7138592
11.84050381,18.81356812,-15.1154604,-4.958526611
11.85050381,18.81356812,-15.1154604,-4.958526611
11.86050381,18.81356812,-15.1154604,-4.958526611
11.87050381,17.4305172,-15.33081436,-2.843271494
11.88050381,18.27757645,-16.0008049,-1.240080357
11.89050381,18.61257172,-16.27837181,-0.249451756
11.90050381,18.67956924,-16.94357681,0.152542442
11.91050381,18.67956924,-16.94357681,0.152542442
11.92050381,15.6741848,-17.58963966,0.023330022
11.93050381,15.11905003,-17.1302166,0.745962441
11.94050381,15.49233055,-17.18285942,1.205384374
11.95050381,17.20080566,-18.19741631,1.191027522
11.96050381,19.38306046,-19.79103661,0.209970191
11.97050381,21.68974113,-20.38924217,-2.603989124
11.98050381,21.34517479,-18.50848389,-3.77647233
11.99050381,21.12024879,-17.11107445,-4.757529736
12.00050381,21.3212471,-16.85743523,-5.537590027
12.01050381,21.7854538,-16.59901047,-6.111867428
12.02050381,22.41715813,-15.79502201,-6.695715904
12.03050381,23.216362,-14.78525066,-7.140780926
12.04050381,24.85305214,-13.83769321,-6.958926678
12.05050381,24.85305214,-13.83769321,-6.958926678
12.06050381,25.48954391,-11.04287624,-5.355735302
12.07050381,26.02075005,-9.683753014,-4.360321045
12.08050381,26.94437981,-8.554341316,-3.896113396
12.09050381,27.82493782,-7.238288403,-4.422534466
12.10050381,29.33720207,-6.223731518,-6.887141705
12.11050381,29.86362267,-6.845865726,-8.423334122
12.12050381,29.98326492,-7.319644451,-9.4809618
12.13050381,29.67698288,-8.295916557,-9.921240807
12.14050381,29.36112976,-9.985248566,-9.681958199
12.15050381,28.71506882,-12.00000572,-9.399605751
12.16050381,27.91586494,-13.24427319,-8.57647419
12.17050381,27.91586494,-13.24427319,-8.57647419
12.18050381,27.91586494,-13.24427319,-8.57647419
12.19050381,27.91586494,-13.24427319,-8.57647419
12.20050381,27.91586494,-13.24427319,-8.57647419
12.21050381,32.47658539,-19.88674927,-1.039083242
12.22050381,32.68236923,-22.17907333,-1.24965167
12.23050381,32.68236923,-22.17907333,-1.24965167
12.24050381,32.68236923,-22.17907333,-1.24965167
12.25050381,34.65884018,-32.13800049,7.244868755
12.26050381,35.86482239,-33.26741409,9.824331284
12.27050381,36.37210083,-33.53540802,10.92502975
12.28050381,36.45345688,-34.08575821,10.59482002
12.29050381,35.85525131,-35.74637604,9.230911255
12.30050381,35.85525131,-35.74637604,9.230911255
12.31050381,35.85525131,-35.74637604,9.230911255
12.32050381,35.85046387,-36.98585892,12.52343559
12.33050381,35.85046387,-36.98585892,12.52343559
12.34050381,39.74119568,-40.51287842,11.75294685
12.35050381,40.69353867,-44.85346222,9.63290596
12.36050381,39.26741409,-60.55516434,8.106285095
12.37050381,35.14697647,-68.77690125,11.12124157
12.38050381,31.47638512,-78.68318939,17.12244034
12.39050381,25.33640289,-84.9715271,24.85604286
12.40050381,16.19581985,-84.38767242,31.96272659
12.41050381,6.423532486,-79.50153351,36.47558975
12.42050381,-10.35972595,-67.0779953,34.13541031
12.43050381,-17.19841194,-60.99544144,28.3495636
12.44050381,-23.63510513,-53.97489929,21.79801559
12.45050381,-29.10031319,-46.89693069,14.34198093
12.46050381,-33.57967758,-38.29712677,7.862216949
12.47050381,-36.0682106,-29.43411064,3.349353552
12.48050381,-35.60879135,-24.34218407,1.506880045
12.49050381,-30.02872849,-21.98286247,4.062414646
12.50050381,-27.4205513,-20.01596069,5.962316036
12.51050381,-24.32902336,-18.58983994,6.780661106
12.52050381,-24.32902336,-18.58983994,6.780661106
12.53050381,-24.32902336,-18.58983994,6.780661106
12.54050381,-17.217556,-16.2640152,2.813361168
12.55050381,-17.217556,-16.2640152,2.813361168
12.56050381,-17.217556,-16.2640152,2.813361168
12.57050381,-16.13121414,-9.980463028,-0.570089996
12.58050381,-14.4753809,-9.994820595,-0.680159807
12.59050381,-12.82433319,-10.11446095,-1.024726272
12.60050381,-11.51306629,-10.04746246,-1.575075507
12.61050381,-10.23529911,-9.674181938,-1.948355794
12.62050381,-7.000202656,-9.678967476,-1.924427629
12.63050381,-5.349154949,-10.04746246,-1.79521513
12.64050381,-3.760320902,-10.45424175,-1.584646821
12.65050381,-2.267199516,-10.80359459,-1.216152072
12.66050381,-1.142572761,-11.11466122,-1.18743825
12.67050381,-0.214157626,-11.65065384,-1.321436286
12.68050381,1.317248821,-13.01934814,-1.479362607
12.69050381,2.173879385,-13.8233366,-1.168295622
12.70050381,3.298506021,-15.1346035,-0.742373228
12.71050381,3.298506021,-15.1346035,-0.742373228
12.72050381,6.547959328,-18.89133453,1.368096352
12.73050381,8.586644173,-20.35095596,2.980858803
12.74050381,10.64925671,-21.0831604,4.517050743
12.75050381,10.64925671,-21.0831604,4.517050743
12.76050381,10.64925671,-21.0831604,4.517050743
12.77050381,15.1286211,-20.42752647,4.555335999
12.78050381,15.15733528,-20.97787666,4.536193371
12.79050381,14.81755447,-21.71486473,5.201398373
12.80050381,14.77926922,-22.19821548,6.637091637
12.81050381,15.774683,-22.92084885,11.08774185
12.82050381,16.37288857,-23.22234344,13.01635742
12.83050381,16.98545074,-23.33241272,14.41376495
12.84050381,17.79422569,-23.44726944,15.12204075
12.85050381,18.77528381,-23.36112785,14.93061543
12.86050381,19.55055809,-22.72463608,13.79641724
12.87050381,20.48854446,-21.48036957,11.05424213
12.88050381,20.48854446,-21.48036957,11.05424213
12.89050381,20.48854446,-21.48036957,11.05424213
12.90050381,20.48854446,-21.48036957,11.05424213
12.91050381,19.8903389,-19.16890144,7.273582458
12.92050381,19.54577255,-18.5850544,6.933801651
12.93050381,19.04327965,-18.1591301,6.876374245
12.94050381,19.04327965,-18.1591301,6.876374245
12.95050381,17.65065575,-16.38365746,7.886145115
12.96050381,17.27737617,-15.70888042,8.058428764
12.97050381,17.20080566,-15.354743,8.149355888
12.98050381,17.09073639,-15.13938904,8.034500122
12.99050381,16.81795311,-14.82353592,7.522436142
13.00050381,16.22453308,-13.78026581,5.742176056
13.01050381,16.5403862,-13.50269794,4.957330227
13.02050381,17.50708771,-13.73240948,4.464408875
13.03050381,18.82792473,-13.75155163,4.129413605
13.04050381,20.30190277,-13.13898945,3.990629911
13.05050381,21.99123573,-11.94736385,3.698705673
13.06050381,23.9198513,-10.83709335,3.023929596
13.07050381,27.46601486,-9.64068222,0.296111792
13.08050381,28.78206635,-9.487542152,-1.177866936
13.09050381,29.39941597,-9.487542152,-2.532204628
13.10050381,29.39941597,-9.487542152,-2.532204628
13.11050381,29.00699234,-10.052248,-4.700101852
13.12050381,28.4375,-9.94696331,-4.92502737
13.13050381,28.4375,-9.94696331,-4.92502737
13.14050381,28.4375,-9.94696331,-4.92502737
13.15050381,28.4375,-9.94696331,-4.92502737
13.16050381,32.94079208,-13.01456261,0.056829538
13.17050381,33.05086136,-14.13918877,-1.173081279
13.18050381,33.05086136,-14.13918877,-1.173081279
13.19050381,31.64866829,-15.45045567,-3.972683907
13.20050381,31.64866829,-15.45045567,-3.972683907
13.21050381,31.64866829,-15.45045567,-3.972683907
13.22050381,28.34657288,-20.80080795,-3.087339401
13.23050381,27.62872696,-22.60978127,-1.599003673
13.24050381,27.05923462,-23.83490562,0.339182615
13.25050381,26.87259483,-25.18924332,2.531008244
13.26050381,26.87259483,-25.18924332,2.531008244
13.27050381,29.79183769,-28.03670311,6.785446644
13.28050381,31.14617538,-29.13261604,6.718447685
13.29050381,32.13201904,-30.10888672,7.000801086
13.30050381,32.94557953,-31.24308586,8.225926399
13.31050381,34.05584717,-33.22912979,10.46082211
13.32050381,35.5776825,-36.08137131,13.48535061
13.33050381,39.91826248,-43.15455627,19.14198303
13.33050381,39.91826248,-43.15455627,19.14198303
13.35050381,43.81856537,-52.58706284,21.14238358
13.36050381,44.02434921,-57.15735626,21.13759613
13.37050381,41.97130585,-61.40700912,20.49632072
13.38050381,38.15714645,-64.87660217,20.70210266
13.39050381,31.69652557,-74.62496185,23.64527512
13.40050381,26.78645325,-77.32884979,24.52583313
13.41050381,21.72802544,-78.59226227,24.62633324
13.42050381,17.84208298,-79.93702698,23.82712936
13.43050381,17.84208298,-79.93702698,23.82712936
13.44050381,5.006981373,-77.36713409,20.26182365
13.45050381,5.006981373,-77.36713409,20.26182365
13.46050381,5.006981373,-77.36713409,20.26182365
13.47050381,5.006981373,-77.36713409,20.26182365
13.48050381,5.006981373,-77.36713409,20.26182365
13.49050381,-31.713274,-33.60240936,7.211369038
13.50050381,-31.5744915,-30.22852898,2.679363251
13.51050381,-31.5744915,-26.0650177,-0.555733085
13.52050381,-31.58884811,-17.00579071,1.731805444
13.53050381,-29.30130959,-15.7184515,3.516851187
13.54050381,-26.08057022,-15.59881115,4.220340729
13.55050381,-23.40060997,-14.65603828,4.31126833
13.56050381,-21.29014015,-13.2777729,3.837489367
13.57050381,-19.02174377,-12.28235817,3.043072224
13.58050381,-13.78146172,-11.66022491,0.908674419
13.59050381,-11.55613708,-11.54058361,0.01375873
13.60050381,-9.981659889,-11.3635149,-0.795015335
13.61050381,-8.809176445,-10.94237804,-1.493719578
13.62050381,-7.904689789,-10.29153061,-1.986641049
13.63050381,-7.134200573,-9.760323524,-2.431705952
13.64050381,-6.27278471,-9.310472488,-2.828914642
13.65050381,-6.27278471,-9.310472488,-2.828914642
13.66050381,-6.27278471,-9.310472488,-2.828914642
13.67050381,-6.27278471,-9.310472488,-2.828914642
13.68050381,-6.27278471,-9.310472488,-2.828914642
13.69050381,-0.467796832,-7.980063438,-1.7138592
13.70050381,0.096909314,-8.037490845,-1.077368379
13.71050381,0.096909314,-8.037490845,-1.077368379
13.72050381,1.934597135,-9.956535339,0.597607434
13.73050381,2.413161755,-10.95673466,1.157527924
13.74050381,2.958725214,-11.98086262,1.655235052
13.75050381,3.710071564,-12.62213898,2.267797709
13.76050381,4.638486862,-12.88535023,2.980858803
13.77050381,5.638686657,-13.02413368,3.445066452
13.78050381,8.074580193,-13.91904926,4.450051785
13.79050381,8.074580193,-13.91904926,4.450051785
13.80050381,11.22353458,-15.36431408,6.077171326
13.81050381,12.64008522,-16.16830254,6.641877651
13.82050381,13.74078369,-16.99621964,7.019943237
13.83050381,14.54477215,-17.6949234,7.307082176
13.84050381,15.78904057,-18.60419655,8.048856735
13.85050381,15.78904057,-18.60419655,8.048856735
13.86050381,15.78904057,-18.60419655,8.048856735
13.87050381,15.78904057,-18.60419655,8.048856735
13.88050381,15.78904057,-18.60419655,8.048856735
13.89050381,18.75613976,-16.4650135,6.235097408
13.90050381,18.75613976,-16.4650135,6.235097408
13.91050381,18.75613976,-16.4650135,6.235097408
13.92050381,18.75613976,-16.4650135,6.235097408
13.93050381,18.75613976,-16.4650135,6.235097408
13.94050381,14.79362583,-17.46521187,2.818146944
13.95050381,14.23849106,-17.65185356,3.923630953
13.96050381,14.32463264,-17.5322113,5.565107346
13.97050381,14.32463264,-17.5322113,5.565107346
13.98050381,16.95195198,-16.01994705,8.326424599
13.99050381,16.98545074,-14.91924953,7.364510059
14.00050381,16.62652779,-14.12483215,5.708676815
14.01050381,15.95175171,-13.54576874,3.84706068
14.02050381,15.15254974,-13.52184105,2.143370867
14.03050381,14.25763416,-15.20638752,0.611964405
14.04050381,14.13320732,-15.8811636,1.085743308
14.05050381,14.29113293,-16.29751587,2.219941139
14.06050381,14.82712555,-16.60858154,3.717848301
14.07050381,15.59282875,-16.5655117,5.01475811
14.08050381,16.25324821,-16.01994705,5.478965759
14.09050381,16.67438507,-15.18724537,5.215754986
14.10050381,16.67438507,-15.18724537,5.215754986
14.11050381,16.67438507,-15.18724537,5.215754986
14.12050381,16.67438507,-15.18724537,5.215754986
14.13050381,17.58844376,-12.47378445,0.176470667
14.14050381,17.57408524,-12.23450184,0.138185501
14.15050381,17.81336784,-12.16750336,0.396610349
14.16050381,17.81336784,-12.16750336,0.396610349
14.17050381,19.96690941,-11.00937653,1.171884894
14.18050381,21.23510361,-10.74616623,0.736391187
14.19050381,22.64208412,-10.52602673,-0.168095797
14.20050381,22.64208412,-10.52602673,-0.168095797
14.21050381,24.63769913,-10.74138069,-3.135195971
14.22050381,25.65225601,-11.28215885,-4.235894203
14.23050381,27.81536674,-11.41615677,-4.116253376
14.24050381,29.0644207,-11.50229836,-3.436691523
14.25050381,30.16511917,-11.77986622,-2.508276224
14.26050381,30.16511917,-11.77986622,-2.508276224
14.27050381,30.90210724,-12.23928738,-1.2352947
14.28050381,30.90210724,-12.23928738,-1.2352947
14.29050381,30.90210724,-12.23928738,-1.2352947
14.30050381,30.90210724,-12.23928738,-1.2352947
14.31050381,30.90210724,-12.23928738,-1.2352947
14.32050381,28.16950417,-18.83390617,2.746362209
14.33050381,28.60978317,-20.30310059,3.526422262
14.34050381,28.75335312,-21.30330086,3.803989887
14.35050381,27.75315285,-22.274786,3.827918053
14.36050381,25.76232529,-24.60539436,4.512265205
14.37050381,25.26461792,-25.36631203,5.134399414
14.38050381,25.25504684,-25.97887611,6.081956863
14.39050381,25.91068077,-26.54836655,7.292725086
14.40050381,25.91068077,-26.54836655,7.292725086
14.40050381,27.03530693,-27.30928421,8.173283577
14.42050381,30.58147049,-31.56851006,9.384052277
14.43050381,32.03152084,-34.5356102,9.628120422
14.44050381,33.0795784,-37.59363556,10.1401844
14.45050381,33.7830658,-40.41716766,11.08295631
14.46050381,34.02713394,-43.07320023,12.08315659
14.47050381,34.22813034,-45.62873459,13.15992641
14.48050381,33.22314453,-49.86881638,14.43290806
14.49050381,32.21815872,-51.64907837,14.99282837
14.50050381,32.21815872,-51.64907837,14.99282837
14.51050381,32.21815872,-51.64907837,14.99282837
14.52050381,28.1982193,-60.36852264,16.7539463
14.53050381,26.81038094,-62.90969849,18.11785507
14.54050381,25.71925354,-64.95317078,19.87418747
14.55050381,25.71925354,-64.95317078,19.87418747
14.56050381,25.71925354,-64.95317078,19.87418747
14.57050381,12.68315601,-66.63293457,32.61357498
14.58050381,2.035095692,-58.44947815,33.96312714
14.59050381,-5.693721294,-50.94558716,33.35535049
14.60050381,-9.115457535,-45.39902496,29.60818863
14.61050381,-8.723034859,-39.16333008,17.80200195
14.62050381,-10.13479996,-37.55056763,12.76750374
14.63050381,-15.64786339,-35.88037491,6.938587666
14.64050381,-24.28116798,-34.05225754,0.87517488
14.65050381,-34.05345535,-30.43909645,-3.575475216
14.66050381,-42.55754852,-24.72025108,-4.446462631
14.67050381,-46.93641281,-21.50908279,-2.039283037
14.68050381,-38.57110596,-19.57568169,6.034100533
14.69050381,-29.74637413,-19.99681854,8.235497475
14.70050381,-22.23291206,-20.30310059,6.838088989
14.71050381,-17.31326866,-19.19761658,3.267997503
14.72050381,-14.45145226,-17.08714676,-0.708873689
14.73050381,-12.41276741,-15.04367638,-3.728615999
14.74050381,-12.41276741,-15.04367638,-3.728615999
14.75050381,-6.741777897,-11.94257736,-2.1302104
14.76050381,-5.229514122,-11.79900837,0.128614217
14.77050381,-4.018745422,-11.66979599,2.148156643
14.78050381,-2.889333248,-11.26780224,3.73699069
14.79050381,-1.735992789,-10.88973618,4.746761799
14.80050381,-0.558724105,-10.76530933,5.0291152
14.81050381,1.345962763,-10.51167011,4.210769653
14.82050381,2.221735716,-10.21974564,3.823132277
14.83050381,3.006581545,-10.11924744,3.646063566
14.84050381,3.757927895,-10.14317513,3.41635251
14.85050381,4.571487427,-10.3154583,3.081357241
14.86050381,5.523830891,-10.9615202,2.325225353
14.87050381,6.887740135,-12.08136177,-0.38823548
14.88050381,6.921239376,-11.94257736,-1.723430514
14.89050381,6.86381197,-11.48794174,-2.245065928
14.90050381,6.959524632,-11.22473145,-2.072782516
14.91050381,7.265805721,-11.35872936,-1.441077471
14.92050381,7.739584923,-11.85165024,-0.48394838
14.93050381,7.739584923,-11.85165024,-0.48394838
14.94050381,7.739584923,-11.85165024,-0.48394838
14.95050381,7.739584923,-11.85165024,-0.48394838
14.96050381,12.4486599,-16.60858154,3.693919897
14.97050381,13.63549995,-17.16850281,4.038486481
14.98050381,13.63549995,-17.16850281,4.038486481
14.99050381,15.15254974,-15.95773411,4.201198578
15.00050381,17.05245018,-16.97707748,4.378267288
15.01050381,17.68894196,-17.83849335,4.770689964
15.02050381,18.11964989,-18.22612953,5.148756027
15.03050381,18.50250053,-18.53719711,5.593821049
15.04050381,19.02892113,-18.99661827,5.83310318
15.05050381,19.69891167,-19.27418709,5.727818966
15.06050381,19.64148521,-19.14018822,3.842274904
15.07050381,19.24906158,-18.85305023,2.770290375
15.08050381,19.05285072,-18.40798378,2.114656925
15.09050381,19.05285072,-18.40798378,2.114656925
15.10050381,19.16292,-17.07279015,2.176870346
15.11050381,19.74198341,-16.99621964,2.363510609
15.12050381,20.49811554,-17.02014732,2.114656925
15.13050381,20.49811554,-17.02014732,2.114656925
15.14050381,20.49811554,-17.02014732,2.114656925
15.15050381,21.43131638,-15.01017666,-0.014955142
15.16050381,21.885952,-14.29711533,-0.072382882
15.17050381,22.64208412,-13.69412422,-0.105882399
15.18050381,23.77149582,-13.51705551,-0.474377096
15.19050381,23.77149582,-13.51705551,-0.474377096
15.20050381,26.64766884,-13.2203455,-3.010769129
15.21050381,26.64766884,-13.2203455,-3.010769129
15.22050381,27.82015228,-12.0287199,-3.853042603
15.23050381,28.8012104,-11.91386414,-3.829114437
15.24050381,29.65305519,-12.12443256,-3.987040758
15.25050381,30.27518845,-12.29671574,-4.499104977
15.26050381,31.12703323,-12.75135231,-5.882156372
15.27050381,31.23231697,-13.29691505,-6.303293228
15.28050381,31.16531944,-14.01476192,-6.049654007
15.29050381,30.70111084,-15.15374565,-4.92502737
15.30050381,29.82055283,-16.16830254,-2.986840963
15.31050381,29.11706161,-16.63251114,-0.742373228
15.32050381,29.11706161,-16.63251114,-0.742373228
15.33050381,29.11706161,-16.63251114,-0.742373228
15.34050381,29.11706161,-16.63251114,-0.742373228
15.35050381,23.59442711,-18.41755676,2.37786746
15.36050381,21.86202431,-18.37927055,2.344367981
15.37050381,20.31626129,-18.47498322,2.598007202
15.38050381,18.79442596,-18.63290977,3.244069338
15.39050381,17.22473335,-18.37927055,5.555535793
15.40050381,18.07657814,-18.50369835,6.637091637
15.41050381,19.32084656,-18.73819351,7.249654293
15.42050381,21.06760788,-19.15454483,7.613363266
15.43050381,23.13022041,-19.71925163,7.575078487
15.44050381,25.18326187,-20.28395844,7.211369038
15.45050381,28.40878677,-22.55235291,5.813961029
15.46050381,29.51427078,-24.29432869,5.368896008
15.47050381,30.73939514,-26.72064972,5.7038908
15.48050381,31.73002434,-29.41975403,6.756732941
15.49050381,31.98366356,-31.82214928,8.326424599
15.50050381,31.73002434,-33.81297684,9.948758125
15.51050381,30.21776009,-38.35455322,12.2602253
15.52050381,28.35614395,-40.29752731,12.8440733
15.53050381,25.9776783,-41.93421555,13.73898983
15.54050381,25.9776783,-41.93421555,13.73898983
15.55050381,21.06282043,-43.75276184,15.33260918
15.56050381,19.82333946,-45.01138687,15.54796314
15.57050381,19.51227188,-47.22714233,14.94975758
15.58050381,19.51227188,-47.22714233,14.94975758
15.59050381,15.774683,-50.70151901,13.39920902
15.60050381,13.38664627,-50.80201721,14.25105381
15.61050381,10.30469036,-50.35695267,17.50529289
15.62050381,6.327819347,-48.78247452,22.31007957
15.63050381,2.317448616,-47.49035263,25.2245388
15.64050381,2.317448616,-47.49035263,25.2245388
15.65050381,-15.12622833,-41.84807587,14.79661655
15.66050381,-21.76870346,-40.29752731,5.962316036
15.67050381,-31.1724968,-37.16292953,-2.838485956
15.68050381,-41.48077774,-29.63032341,-8.011768341
15.69050381,-48.29553604,-22.37528419,-7.389634609
15.70050381,-49.51587677,-19.326828,-0.809372246
15.71050381,-49.51587677,-19.326828,-0.809372246
15.72050381,-49.51587677,-19.326828,-0.809372246
15.73050381,-30.17229652,-15.63709641,9.527621269
15.74050381,-30.17229652,-15.63709641,9.527621269
15.75050381,-22.14198494,-14.09133244,3.287140131
15.76050381,-18.32782555,-13.67498112,1.272383451
15.77050381,-18.32782555,-13.67498112,1.272383451
15.78050381,-6.937989235,-13.19163132,2.081157446
15.79050381,-3.951746702,-12.8374939,2.952144861
15.80050381,-1.204786181,-12.37328625,3.473780155
15.81050381,1.140179992,-12.09093285,3.382853031
15.82050381,2.958725214,-12.43071365,2.813361168
15.83050381,2.958725214,-12.43071365,2.813361168
15.84050381,2.958725214,-12.43071365,2.813361168
15.85050381,7.543373585,-13.37348557,-0.144167557
15.86050381,8.060222626,-12.48335552,-0.086739823
15.87050381,8.629714966,-11.83250809,0.473180681
15.88050381,9.692128181,-11.7463665,1.157527924
15.89050381,11.00818062,-11.88036442,1.712662816
15.90050381,13.3770752,-12.110075,1.841875196
15.91050381,14.30070496,-12.08136177,1.602592945
15.92050381,14.86062527,-11.89472103,1.128814101
15.93050381,15.01855087,-11.51186943,0.205184549
15.94050381,14.83191109,-10.92323494,-0.838086128
15.95050381,14.54477215,-10.16231823,-1.642074585
15.96050381,14.54477215,-10.16231823,-1.642074585
15.97050381,14.54477215,-10.16231823,-1.642074585
15.98050381,15.0711937,-10.40638542,-0.665802896
15.99050381,15.0711937,-10.40638542,-0.665802896
16.00050381,14.35334682,-10.10967541,1.521237016
16.01050381,14.30070496,-10.05703354,2.947359324
16.02050381,14.7457695,-10.39681435,4.191627026
16.03050381,15.51625824,-10.7605238,4.50269413
16.04050381,15.51625824,-10.7605238,4.50269413
16.05050381,15.51625824,-10.7605238,4.50269413
16.06050381,15.58804321,-10.80838013,0.58803618
16.07050381,15.4109745,-10.89930725,-0.144167557
16.08050381,15.04247952,-10.97587776,-0.105882399
16.09050381,15.04247952,-10.97587776,-0.105882399
16.10050381,14.47777367,-10.94237804,2.631506681
16.11050381,14.39641762,-10.39681435,3.660420418
16.12050381,14.28634739,-9.966106415,4.148556232
16.13050381,14.27677631,-9.760323524,3.885345697
16.14050381,14.36770344,-9.573683739,3.205784082
16.15050381,14.68355656,-9.554540634,2.598007202
16.16050381,15.43490219,-9.477970123,1.11445713
16.17050381,15.48275852,-9.119047165,0.286540508
16.18050381,15.59761429,-9.066405296,-0.393021107
16.19050381,15.70289898,-9.444471359,-0.919442117
16.20050381,15.66461372,-9.918250084,-1.264008522
16.21050381,15.92782402,-10.43988514,-1.125224829
16.22050381,15.92782402,-10.43988514,-1.125224829
16.23050381,19.81376839,-12.07657623,0.36311084
16.24050381,21.75674057,-12.61735344,0.659820855
16.25050381,23.58485603,-13.49791241,1.085743308
16.26050381,23.58485603,-13.49791241,1.085743308
16.27050381,25.90110779,-15.2973156,1.660020709
16.28050381,26.43231583,-15.75673676,1.511665702
16.29050381,26.43231583,-15.75673676,1.511665702
16.30050381,26.43231583,-15.75673676,1.511665702
16.31050381,27.8345089,-14.76610851,-1.254437327
16.32050381,28.26043129,-15.64188194,-2.728415966
16.33050381,28.50449944,-17.00579071,-4.255036831
16.34050381,28.32264519,-18.5850544,-5.518447399
16.35050381,28.32264519,-18.5850544,-5.518447399
16.36050381,25.12104797,-19.60918236,-4.609174728
16.37050381,23.64228439,-19.4895401,-2.288136721
16.38050381,22.59901428,-19.53261185,0.262612283
16.39050381,22.59901428,-19.53261185,0.262612283
16.40050381,21.74716949,-19.74317932,3.076571703
16.41050381,21.92902374,-19.71925163,2.90428853
16.42050381,21.76152611,-19.85803604,0.559322298
16.43050381,22.14916229,-20.14995956,-0.010169496
16.44050381,22.62294197,-20.00638962,-0.397806764
16.45050381,23.29771805,-19.21197319,-0.862014353
16.46050381,24.36491585,-18.28834343,-1.555932879
16.47050381,25.29811668,-17.57528305,-2.728415966
16.48050381,27.2458744,-17.90070534,-4.173680782
16.49050381,27.44208717,-19.25504303,-4.106681824
16.50050381,27.44208717,-19.25504303,-4.106681824
16.51050381,27.33201599,-21.87757683,0.650249541
16.52050381,28.12643433,-23.12663078,4.31126833
16.53050381,30.16511917,-24.62453842,8.024929047
16.54050381,30.16511917,-24.62453842,8.024929047
16.55050381,35.66382599,-31.53022385,9.63290596
16.56050381,35.66382599,-31.53022385,9.63290596
16.56050381,35.77867889,-35.25824356,8.47956562
16.58050381,33.71128082,-47.64827728,8.905488014
16.59050381,31.59602737,-52.40520859,11.8343029
16.60050381,30.14597702,-56.15715408,16.59601974
16.61050381,29.51427078,-60.31109619,24.30090904
16.62050381,31.07439041,-65.15416718,23.33420753
16.63050381,30.39004326,-72.97869873,19.64447594
16.64050381,23.24028969,-76.60621643,16.61037636
16.65050381,12.74536991,-75.51509094,16.42852211
16.66050381,1.010967612,-69.46603394,19.25683784
16.67050381,1.010967612,-69.46603394,19.25683784
16.68050381,1.010967612,-69.46603394,19.25683784
16.69050381,1.010967612,-69.46603394,19.25683784
16.69050381,-29.62194824,-38.38805389,19.59661865
16.71050381,-36.73341751,-33.02334595,-2.675773859
16.72050381,-38.79602814,-25.88794899,-11.29950714
16.73050381,-37.57090378,-20.27917099,-15.21895027
16.74050381,-25.26701164,-17.04886055,-9.624530792
16.75050381,-20.59143448,-15.60838223,-5.74337244
16.76050381,-17.98804474,-13.20598793,-3.192623615
16.77050381,-16.05942917,-11.37308598,-2.340778828
16.78050381,-14.34138298,-10.34895802,-2.527418852
16.79050381,-12.84347534,-9.616754532,-3.465405464
16.80050381,-9.929018021,-8.92283535,-4.427320004
16.81050381,-8.321041107,-8.559126854,-3.987040758
16.82050381,-6.215356827,-8.003992081,-2.857628345
16.83050381,-3.588037491,-7.793423176,-1.460219979
16.84050381,-0.793220699,-7.922635555,-0.239880472
16.85050381,1.762313843,-7.91306448,0.655035198
16.86050381,3.848855257,-7.525427341,1.047458172
16.87050381,3.848855257,-7.525427341,1.047458172
16.88050381,3.848855257,-7.525427341,1.047458172
16.89050381,3.848855257,-7.525427341,1.047458172
16.90050381,7.366304398,-5.879165173,-1.900499344
16.91050381,7.174878597,-5.592026711,-3.02512598
16.92050381,7.21794939,-5.228317261,-3.747758389
16.93050381,7.21794939,-5.228317261,-3.747758389
16.94050381,7.21794939,-5.228317261,-3.747758389
16.95050381,7.85922575,-5.443671703,-3.44147706
16.96050381,8.151150703,-4.97467804,-2.149353027
16.97050381,8.677571297,-4.744967461,-0.828514814
16.98050381,9.553344727,-5.06560564,-0.192024022
16.99050381,9.553344727,-5.06560564,-0.192024022
17.00050381,9.10349369,-5.242674351,-2.182852507
17.01050381,8.534002304,-4.314259052,-2.64227438
17.02050381,8.663214684,-3.907479286,-2.819343328
17.03050381,9.352347374,-3.73998189,-2.857628345
17.04050381,10.35254669,-3.390629768,-2.532204628
17.05050381,12.09930801,-3.189632654,-1.584646821
17.06050381,16.34417534,-4.175475597,-0.105882399
17.07050381,17.68894196,-4.778466702,-0.53180486
17.08050381,17.68894196,-4.778466702,-0.53180486
17.09050381,17.68894196,-4.778466702,-0.53180486
17.10050381,18.27279091,-4.998606682,-0.852443039
17.11050381,17.91865158,-4.735395908,-0.072382882
17.12050381,17.91865158,-4.735395908,-0.072382882
17.13050381,17.91865158,-4.735395908,-0.072382882
17.14050381,15.04247952,-6.597012043,-2.982055187
17.15050381,13.87478256,-7.171289444,-3.613760471
17.16050381,12.73579884,-8.013563156,-3.77647233
17.17050381,11.45803165,-8.884550095,-3.364906788
17.18050381,10.18026352,-9.454042435,-2.19242382
17.19050381,10.18026352,-9.454042435,-2.19242382
17.20050381,8.644071579,-10.99980545,2.79421854
17.21050381,8.983852386,-11.75115204,3.875774384
17.22050381,9.390632629,-12.43071365,3.966701746
17.23050381,9.677771568,-12.80877972,2.784647465
17.24050381,9.964909554,-12.7944231,1.181456208
17.25050381,9.964909554,-12.7944231,1.181456208
17.26050381,9.964909554,-12.7944231,1.181456208
17.27050381,9.964909554,-12.7944231,1.181456208
17.28050381,9.988838196,-12.48814106,-3.771686792
17.29050381,9.988838196,-12.48814106,-3.771686792
17.30050381,10.43868923,-12.10528946,-2.335993052
17.31050381,11.10867882,-11.87079334,-1.532004714
17.32050381,11.10867882,-11.87079334,-1.532004714
17.33050381,14.8079834,-10.58824062,-1.541576028
17.34050381,15.62154293,-9.908679008,-2.694916487
17.35050381,16.12882042,-9.444471359,-3.9200418
17.36050381,16.12882042,-9.444471359,-3.9200418
17.37050381,16.46381569,-8.927620888,-5.149952412
17.38050381,17.4688015,-8.970691681,-4.51346159
17.39050381,18.66999817,-9.659825325,-3.790829182
17.40050381,20.04347801,-10.09053326,-2.828914642
17.41050381,21.38824463,-10.25803089,-1.689931035
17.42050381,22.64208412,-10.80359459,-1.460219979
17.43050381,22.64208412,-10.80359459,-1.460219979
17.44050381,24.22613335,-11.71286678,-3.628117323
17.45050381,24.22613335,-11.71286678,-3.628117323
17.46050381,24.22613335,-11.71286678,-3.628117323
17.47050381,24.22613335,-11.71286678,-3.628117323
17.48050381,26.98266411,-15.34517193,-8.734400749
17.49050381,26.49452782,-15.86202145,-6.308078766
17.50050381,25.64268303,-16.50808334,-3.240479946
17.51050381,27.09273529,-19.83889198,1.96151638
17.52050381,28.62414169,-21.87757683,3.636492252
17.53050381,29.48077202,-23.41376877,4.852046013
17.54050381,29.81098175,-24.50489616,5.364109993
17.55050381,29.85883713,-25.34716988,5.325825214
17.56050381,29.58605576,-26.25644302,5.254040241
17.57050381,29.58605576,-26.25644302,5.254040241
17.58050381,28.25564575,-27.96970367,7.0151577
17.59050381,29.41855812,-27.93620491,8.795417786
17.60050381,31.47638512,-28.85983467,10.11625576
17.61050381,33.883564,-29.67339325,10.81017494
17.62050381,35.97010803,-30.60180855,10.03011417
17.63050381,36.63052368,-32.79841995,7.565506935
17.64050381,35.73082352,-37.89034653,1.990230203
17.65050381,33.98884964,-38.36891174,0.367896467
17.66050381,33.98884964,-38.36891174,0.367896467
17.67050381,33.98884964,-38.36891174,0.367896467
17.68050381,34.14199066,-39.22075653,5.818746567
17.69050381,35.36232758,-41.42215347,7.914859295
17.70050381,35.36232758,-41.42215347,7.914859295
17.71050381,35.5776825,-51.20879745,7.608577728
17.72050381,33.56292725,-55.22395325,7.814360619
17.73050381,31.97887802,-59.32046509,9.494122505
17.74050381,30.61018372,-63.26383972,12.70528984
17.75050381,28.65764046,-66.18308258,16.57209206
17.76050381,26.63809776,-68.31269073,19.76890182
17.77050381,19.53141403,-66.06822968,23.27199554
17.78050381,15.49233055,-63.23033905,23.26242447
17.79050381,10.55354404,-62.26842499,22.39622116
17.80050381,1.130608678,-57.34399414,22.17129707
17.81050381,-8.244470596,-51.69693375,22.69293213
17.82050381,-15.27458382,-49.41896439,22.33879471
17.83050381,-28.92803001,-46.55236435,10.6235342
17.84050381,-28.92803001,-46.55236435,10.6235342
17.84050381,-35.11586761,-41.5896492,3.100499868
17.86050381,-44.01238251,-28.29991341,-5.422734261
17.87050381,-44.16552353,-22.24128723,-3.805186272
17.88050381,-39.11188126,-20.46581268,0.119042926
17.89050381,-31.06721306,-21.39422798,3.411566973
17.90050381,-31.06721306,-21.39422798,3.411566973
17.91050381,-11.72842026,-20.00160408,1.94715941
17.92050381,-7.785048485,-19.22154427,-0.876371264
17.93050381,-5.167300701,-18.12084579,-3.589832067
17.94050381,-3.549752474,-16.4650135,-5.910870075
17.95050381,-2.535195589,-14.72303772,-7.279564857
17.96050381,-2.535195589,-14.72303772,-7.279564857
17.97050381,-2.535195589,-14.72303772,-7.279564857
17.98050381,-2.535195589,-14.72303772,-7.279564857
17.99050381,-2.535195589,-14.72303772,-7.279564857
18.00050381,-1.319641709,-11.2008028,-2.307279348
18.01050381,-1.310070395,-10.85623646,-1.091725349
18.02050381,-1.310070395,-10.85623646,-1.091725349
18.03050381,-0.654437006,-11.25344467,2.129014015
18.04050381,-0.577866673,-11.30608654,2.531008244
18.05050381,-0.123230368,-10.77488041,2.928216696
18.06050381,0.738185763,-10.3154583,3.004786968
18.07050381,2.24566412,-10.16231823,2.947359324
18.08050381,4.174279213,-10.43988514,2.69850564
18.09050381,8.041080475,-12.27757263,1.167099237
18.10050381,8.041080475,-12.27757263,1.167099237
18.11050381,9.701699257,-13.12941742,-1.622931957
18.12050381,9.620343208,-13.43569946,-2.714059114
18.13050381,9.486345291,-14.40718555,-3.326621771
18.14050381,9.706484795,-15.57009697,-3.120838881
18.15050381,9.706484795,-15.57009697,-3.120838881
18.16050381,9.706484795,-15.57009697,-3.120838881
18.17050381,13.38664627,-17.83849335,4.799404144
18.18050381,14.56870079,-17.73799515,6.68016243
18.19050381,15.71725559,-17.56571198,8.268997192
18.20050381,16.82752609,-17.55135345,9.489336014
18.21050381,17.50230217,-17.52264023,9.742975235
18.22050381,17.75115395,-17.57528305,8.623134613
18.23050381,17.74636841,-17.7332077,8.001000404
18.24050381,17.49272919,-17.81456375,7.589435101
18.25050381,17.23430443,-17.8959198,7.474579811
18.26050381,17.42094612,-18.42712784,8.106285095
18.27050381,17.98565102,-19.15454483,9.259625435
18.28050381,18.39243126,-19.74796486,11.37966633
18.29050381,18.30150414,-20.24088669,12.0975132
18.30050381,18.36850357,-20.63331032,12.44207954
18.31050381,18.50728607,-20.36052704,12.51386452
18.32050381,18.50728607,-20.36052704,12.51386452
18.33050381,19.63669968,-19.57089615,12.66700459
18.34050381,20.40240288,-18.92004776,12.54257774
18.35050381,20.40240288,-18.92004776,12.54257774
18.36050381,20.40240288,-18.92004776,12.54257774
18.37050381,21.41695976,-14.8522501,7.082156658
18.38050381,21.34038925,-13.95254898,5.407180786
18.39050381,21.01496506,-13.61276817,4.354339123
18.40050381,20.66082764,-13.65583897,4.277768612
18.41050381,20.66082764,-13.65583897,4.277768612
18.42050381,19.61755562,-13.89990711,4.938187599
18.42050381,19.61755562,-13.89990711,4.938187599
18.44050381,21.38345909,-13.61755371,2.124228239
18.45050381,22.67558289,-13.22991657,-0.058025949
18.46050381,23.98685074,-13.2203455,-2.460419893
18.47050381,25.37468719,-12.77049446,-3.752544165
18.48050381,27.56651306,-10.45424175,-2.627917528
18.49050381,28.52842712,-9.62154007,-1.560718536
18.50050381,29.4281292,-8.243273735,-1.110867858
18.51050381,30.05504799,-6.855436802,-1.503290772
18.52050381,30.67239761,-6.166304111,-2.19242382
18.53050381,30.71546745,-6.592226505,-3.183052301
18.54050381,30.14597702,-9.147761345,-3.417548895
18.55050381,30.14597702,-9.147761345,-3.417548895
18.56050381,30.14597702,-9.147761345,-3.417548895
18.57050381,30.69153976,-15.22553062,0.339182615
18.58050381,31.29931641,-16.45065498,0.31525439
18.59050381,32.23730469,-17.44128418,-0.756730139
18.60050381,32.23730469,-17.44128418,-0.756730139
18.61050381,32.23730469,-17.44128418,-0.756730139
18.62050381,35.73561096,-21.5473671,-5.982655048
18.63050381,36.41517258,-23.94019127,-4.743172646
18.64050381,36.12324524,-27.9984169,-3.163909674
18.65050381,34.74019623,-32.20978546,-0.637089014
18.66050381,32.56751251,-35.17210007,3.052643538
18.67050381,26.85823822,-39.86681747,14.77268887
18.68050381,25.85803795,-40.23052597,20.80260277
18.69050381,25.85803795,-40.23052597,20.80260277
18.70050381,28.47578621,-39.44089508,23.64048958
18.71050381,30.9595356,-40.25445557,20.19482422
18.72050381,30.9595356,-40.25445557,20.19482422
18.73050381,30.9595356,-40.25445557,20.19482422
18.74050381,36.92723465,-47.12185669,13.13599777
18.75050381,36.43431473,-49.03611374,13.94477177
18.76050381,35.71168137,-51.43372345,15.34218025
18.77050381,34.06541824,-54.05625534,17.62971878
18.78050381,31.54817009,-56.29593658,21.29552269
18.79050381,29.21277618,-59.02854156,26.17209625
18.80050381,29.21277618,-59.02854156,26.17209625
18.81050381,21.04846382,-66.13522339,32.21636581
18.82050381,17.00938034,-65.62794495,31.08695412
18.83050381,12.386446,-63.22076797,29.06741142
18.84050381,7.131807804,-59.56453323,26.55973244
18.85050381,1.728814363,-55.1043129,24.65504646
18.86050381,-8.215756416,-50.56273651,20.03211212
18.87050381,-15.36551094,-49.596035,16.22274017
18.88050381,-26.72663307,-47.43770981,12.00180054
18.89050381,-39.96851349,-40.93401718,8.522636414
18.90050381,-49.86044312,-31.67379379,6.890730858
18.91050381,-53.55974579,-25.78266335,4.899902344
18.92050381,-51.70291519,-23.57169533,3.296711445
18.93050381,-51.70291519,-23.57169533,3.296711445
18.94050381,-51.70291519,-23.57169533,3.296711445
18.95050381,-51.70291519,-23.57169533,3.296711445
18.96050381,-25.17608261,-15.50309753,-7.56670332
18.97050381,-22.06062889,-14.37847137,-7.911269665
18.98050381,-19.3136673,-13.37348557,-6.753143787
18.99050381,-19.3136673,-13.37348557,-6.753143787
19.00050381,-12.43191051,-12.17228889,-0.416949332
19.01050381,-10.441082,-12.31107235,0.516251504
19.02050381,-8.909674644,-12.01914787,0.717248559
19.03050381,-7.44048214,-11.44487095,0.415752947
19.04050381,-5.200799942,-10.99501991,0.310468733
19.05050381,0.403190613,-11.18644619,-0.062811591
19.06050381,3.193221807,-11.42572784,-0.383449823
19.07050381,5.586044312,-11.54536915,-0.732801914
19.08050381,7.289734364,-11.47837067,-1.168295622
19.09050381,8.117650986,-11.28215885,-1.847857237
19.10050381,8.299505234,-10.81316566,-2.599203587
19.11050381,8.045866013,-10.58824062,-3.307479143
19.12050381,6.471388817,-10.64088249,-3.283550978
19.13050381,5.720042706,-10.54038334,-2.125424623
19.14050381,5.720042706,-10.54038334,-2.125424623
19.15050381,5.720042706,-10.54038334,-2.125424623
19.16050381,4.920839787,-11.62193966,3.315854073
19.17050381,4.920839787,-11.62193966,3.315854073
19.18050381,4.920839787,-11.62193966,3.315854073
19.19050381,6.571887493,-13.03370476,4.15334177
19.20050381,7.203592777,-13.10070419,3.851846218
19.21050381,7.926225185,-13.22991657,3.708276987
19.22050381,8.452646255,-13.75155163,3.397209883
19.23050381,8.72064209,-14.2061882,3.272783279
19.24050381,8.964710236,-14.74696636,3.77049017
19.25050381,10.0462656,-16.46022606,6.507879257
19.26050381,10.6109724,-17.29771423,7.670791149
19.27050381,10.6109724,-17.29771423,7.670791149
19.28050381,11.19960594,-18.73340797,8.919844627
19.29050381,11.43410301,-19.42254066,8.934201241
19.30050381,11.86002541,-20.02074623,8.651848793
19.31050381,11.86002541,-20.02074623,8.651848793
19.32050381,11.86002541,-20.02074623,8.651848793
19.33050381,14.52084446,-22.04986,8.101499557
19.34050381,14.91805267,-22.44228363,8.230711937
19.35050381,15.10947895,-22.79642105,8.522636414
19.36050381,15.09512138,-23.33241272,8.991629601
19.37050381,14.9084816,-23.87797737,9.460622787
19.38050381,14.9084816,-23.87797737,9.460622787
19.39050381,14.50170135,-24.62932396,10.93460083
19.40050381,14.80319691,-24.46182632,11.2887392
19.41050381,15.41576004,-24.25125694,11.34616661
19.42050381,16.28196144,-24.04068947,11.05902767
19.43050381,17.02852249,-23.70090866,10.47039413
19.44050381,18.32064629,-22.77249336,9.096913338
19.45050381,18.99542236,-22.50449753,8.613563538
19.46050381,19.57927132,-21.96371841,8.388637543
19.47050381,19.99562263,-21.29372787,8.101499557
19.48050381,20.45982933,-20.42274094,7.71864748
19.49050381,21.21117592,-19.66182327,7.364510059
19.50050381,22.00559425,-19.43211174,6.933801651
19.51050381,22.00559425,-19.43211174,6.933801651
19.52050381,22.00559425,-19.43211174,6.933801651
19.53050381,25.939394,-18.98226166,6.780661106
19.54050381,27.35116005,-18.28355789,7.149155617
19.55050381,29.08834839,-16.828722,7.086942673
19.56050381,31.03610611,-15.40738487,6.397809505
19.57050381,33.89313507,-12.36371422,2.645863533
19.58050381,33.89313507,-12.36371422,2.645863533
19.59050381,33.56292725,-10.3154583,-1.259222865
19.60050381,32.51965714,-10.02353382,-2.527418852
19.61050381,31.33760262,-10.82273674,-2.536990166
19.62050381,30.24647522,-13.11027527,-1.503290772
19.63050381,29.30370331,-19.29332924,2.382653236
19.64050381,29.08834839,-22.04986,3.301496983
19.65050381,28.63371277,-24.66282272,2.583650351
19.66050381,27.75793839,-27.03650284,0.693320334
19.67050381,26.91566467,-28.66840744,-1.039083242
19.68050381,26.56152725,-30.29552841,-1.728216171
19.69050381,26.55195618,-32.04707336,-1.345364571
19.70050381,26.55195618,-32.04707336,-1.345364571
19.71050381,26.55195618,-32.04707336,-1.345364571
19.72050381,30.31347275,-40.17788315,11.30309582
19.73050381,29.83969498,-42.58506393,13.51884937
19.74050381,28.82992363,-44.75774765,14.92582989
19.75050381,27.84407997,-46.70550537,16.62473297
19.76050381,27.84407997,-46.70550537,16.62473297
19.76050381,26.57109833,-48.1268425,20.46282196
19.78050381,26.56631279,-46.27479553,20.78824425
19.79050381,26.89173698,-45.72444916,19.38126564
19.80050381,26.47060013,-45.37031174,18.18006897
19.81050381,24.89133835,-46.27958298,16.46202087
19.82050381,22.57029915,-46.55715179,16.26102448
19.83050381,22.57029915,-46.55715179,16.26102448
19.84050381,20.30190277,-44.94438934,29.1391964
19.85050381,21.02453613,-43.69533539,31.42673492
19.86050381,21.02453613,-43.69533539,31.42673492
19.87050381,24.27398872,-45.1788826,24.00898361
19.88050381,25.14497757,-48.5671196,17.33300972
19.89050381,20.45504379,-54.71189117,5.584249973
19.90050381,14.98505211,-54.19025421,2.334796667
19.91050381,8.10807991,-52.18028259,1.329811215
19.92050381,0.364905447,-49.30411148,2.966501951
19.93050381,-6.904489517,-46.43750763,7.589435101
19.94050381,-14.01595879,-43.044487,12.76750374
19.95050381,-20.73978996,-40.68037796,15.92124367
19.96050381,-34.21138,-35.54537964,10.94417286
19.97050381,-34.21138,-35.54537964,10.94417286
19.98050381,-34.21138,-35.54537964,10.94417286
19.99050381,-37.599617,-21.34158516,0.956530869
20.00050381,-31.09592628,-21.59522438,1.502094388
20.01050381,-24.62094879,-21.63350868,3.612564087
20.02050381,-24.62094879,-21.63350868,3.612564087
20.03050381,-24.62094879,-21.63350868,3.612564087
20.04050381,-12.73340607,-16.27837181,7.287939548
20.05050381,-11.90548897,-15.09153271,5.986244202
20.06050381,-11.14935684,-14.12483215,4.560121536
20.07050381,-10.11087227,-13.81855106,3.425923824
20.08050381,-10.11087227,-13.81855106,3.425923824
20.09050381,-7.612765312,-12.65563869,2.751147747
20.10050381,-7.205985546,-12.06221867,3.100499868
20.11050381,-6.736992359,-11.57408333,3.459423304
20.12050381,-6.014359951,-11.19123173,3.689134359
20.13050381,-5.038087845,-11.04766178,3.894917011
20.14050381,-3.903890133,-11.33480072,3.923630953
20.15050381,-3.903890133,-11.33480072,3.923630953
20.16050381,-0.549152792,-12.31585789,3.287140131
20.17050381,-0.549152792,-12.31585789,3.287140131
20.18050381,0.929611623,-12.2297163,2.023729801
20.19050381,1.652244091,-11.95214939,1.24366951
20.20050381,2.413161755,-11.98564816,0.104685992
20.21050381,2.413161755,-11.98564816,0.104685992
20.22050381,2.413161755,-11.98564816,0.104685992
20.23050381,2.413161755,-11.98564816,0.104685992
20.24050381,6.093322754,-14.00997639,-1.555932879
20.25050381,6.404389858,-15.40738487,-0.909870803
20.26050381,6.820741177,-17.16850281,0.401396006
20.27050381,7.816154957,-19.60918236,2.258226395
20.28050381,11.32881927,-23.91147614,6.857231617
20.29050381,13.30050468,-24.75853539,8.589634895
20.30050381,14.77448368,-24.96910477,9.642477036
20.31050381,15.8943243,-25.05524635,10.19761181
20.32050381,16.92802429,-25.56731033,10.01097202
20.33050381,17.72244072,-26.57229614,9.32662487
20.34050381,18.59342766,-26.90250587,8.843274117
20.35050381,19.00499344,-26.72543526,9.053842545
20.36050381,19.00499344,-26.72543526,9.053842545
20.37050381,20.37368774,-26.03630257,9.283554077
20.38050381,20.90489578,-25.76352119,8.723632813
20.39050381,21.30688858,-25.74916458,7.862216949
20.40050381,21.54617119,-26.01237488,7.072585583
20.41050381,20.73739815,-26.48615456,6.766304016
20.42050381,19.55534363,-25.47638321,7.627720356
20.43050381,19.16292,-24.51446724,8.800203323
20.44050381,19.63669968,-24.00240326,10.00618649
20.45050381,20.27797508,-23.01656151,10.54696369
20.46050381,20.57468605,-21.45165443,10.36989498
20.47050381,20.57468605,-21.45165443,10.36989498
20.48050381,20.57468605,-21.45165443,10.36989498
20.49050381,22.14916229,-16.8670063,6.68016243
20.50050381,23.26900291,-16.16830254,5.665606022
20.51050381,24.60419846,-15.37867069,4.440480709
20.52050381,26.13081932,-14.55554008,3.081357241
20.53050381,26.13081932,-14.55554008,3.081357241
20.54050381,31.27538872,-13.91904926,-1.771286964
20.55050381,32.90250778,-14.67518139,-2.862414122
20.56050381,34.01277924,-15.5174551,-3.465405464
20.57050381,34.84069443,-16.24487305,-3.857828379
20.58050381,35.3766861,-17.19721603,-3.9200418
20.59050381,35.60161209,-17.79063606,-3.297907829
20.60050381,35.10390472,-18.64248085,-2.101496458
20.61050381,34.59662628,-19.1880455,-2.264208317
20.62050381,34.02713394,-19.78625107,-2.316850424
20.63050381,33.54856873,-20.72902298,-1.79521513
20.64050381,32.95036316,-21.82972145,-0.909870803
20.65050381,31.90709305,-22.87299156,-0.110668048
20.66050381,27.7340107,-25.97409058,0.19561325
20.67050381,24.97747993,-27.19921494,0.688534737
20.68050381,22.22094727,-27.88834763,1.636092424
20.69050381,19.91905212,-28.32862663,3.062214851
20.70050381,18.05265045,-28.61576653,4.880760193
20.71050381,16.9040947,-29.2905426,6.646663189
20.72050381,16.9040947,-29.2905426,6.646663189
20.73050381,16.9040947,-29.2905426,6.646663189
20.74050381,16.9040947,-29.2905426,6.646663189
20.75050381,16.9040947,-29.2905426,6.646663189
20.76050381,15.32961845,-32.95156097,12.78186035
20.77050381,16.0761795,-33.57847977,12.58564854
20.78050381,17.65544128,-34.41596985,12.08794212
20.79050381,23.73799706,-36.72743607,10.70010471
20.80050381,26.82473755,-36.95235825,10.42732334
20.81050381,29.29413033,-37.25385666,10.90110207
20.82050381,31.13660431,-37.92863083,11.60937691
20.83050381,32.40480042,-39.14897156,12.50907898
20.84050381,33.0556488,-41.16851425,13.14078331
20.85050381,33.06043243,-44.55196381,13.53320694
20.86050381,28.91127968,-53.99882889,12.87278748
20.87050381,25.06840706,-59.94260025,13.91605854
20.88050381,19.5649147,-65.08716583,16.40459442
20.89050381,19.5649147,-65.08716583,16.40459442
20.90050381,4.968696117,-66.23093414,25.76053047
20.91050381,-1.601994753,-63.76154327,31.4985199
20.92050381,-1.601994753,-63.76154327,31.4985199
20.93050381,-1.601994753,-63.76154327,31.4985199
20.94050381,-1.601994753,-63.76154327,31.4985199
20.95050381,-1.601994753,-63.76154327,31.4985199
20.96050381,-34.14438248,-27.57249451,16.48116493
20.97050381,-38.15953827,-24.28954315,12.64786243
20.98050381,-40.71986008,-23.51426888,9.144769669
20.99050381,-42.53361893,-21.67658043,8.211568832
21.00050381,-41.29892349,-20.04467583,11.13081264
21.01050381,-37.08755493,-19.65703773,12.93021584
21.02050381,-31.38306618,-19.50389671,12.26979637
21.03050381,-25.97528648,-18.77647972,9.93918705
21.04050381,-21.14178467,-17.91027832,7.153941631
21.05050381,-13.3268261,-16.10608864,2.554936409
21.06050381,-10.56550884,-14.79482269,1.329811215
21.07050381,-8.512466431,-13.60798264,0.702891648
21.08050381,-6.856633186,-12.65085316,0.473180681
21.09050381,-5.406582832,-11.74158096,0.688534737
21.10050381,-4.071387768,-11.23908806,1.109671474
21.11050381,-4.071387768,-11.23908806,1.109671474
21.12050381,-4.071387768,-11.23908806,1.109671474
21.13050381,-4.071387768,-11.23908806,1.109671474
21.14050381,1.183250785,-10.35374355,1.463809252
21.15050381,2.470589399,-10.27717304,1.181456208
21.16050381,3.877569199,-10.42552853,0.808175862
21.17050381,5.064409256,-10.66481018,0.324825674
21.18050381,6.150750637,-11.55015469,-0.828514814
21.19050381,6.093322754,-11.80857944,-1.211366415
21.20050381,5.753541946,-11.76072311,-1.359721422
21.21050381,5.753541946,-11.79900837,-0.809372246
21.22050381,6.299105644,-12.28235817,0.611964405
21.23050381,7.203592777,-13.12463188,2.444866419
21.24050381,9.778269768,-15.3978138,5.679962635
21.25050381,11.06082249,-16.163517,6.460022926
21.26050381,12.29073334,-16.55594063,6.929016113
21.27050381,13.70728493,-16.90050697,7.187440872
21.28050381,15.03290844,-17.39821434,7.259225845
21.29050381,15.93260956,-17.54656792,7.106084824
21.30050381,16.59302902,-17.23071671,6.795018196
21.31050381,17.52622986,-16.80479431,5.325825214
21.32050381,17.76072693,-17.08236122,4.469194412
21.33050381,17.95215225,-17.66142464,4.052843571
21.34050381,17.90908051,-18.34098625,3.789632797
21.35050381,17.44487381,-18.80040741,3.636492252
21.36050381,17.05723572,-19.01576233,4.292125702
21.37050381,17.05723572,-19.01576233,4.292125702
21.38050381,17.05723572,-19.01576233,4.292125702
21.39050381,17.17209244,-20.57109642,7.905287743
21.40050381,17.96650887,-20.53759766,8.288139343
21.41050381,18.96670914,-20.37010002,8.201997757
21.42050381,20.07697868,-20.216959,7.675576687
21.43050381,20.78525352,-20.0542469,6.531807423
21.44050381,20.52204323,-18.5611248,4.31126833
21.45050381,19.70848465,-17.46042633,3.693919897
21.46050381,18.84706688,-16.43151283,3.526422262
21.47050381,18.33978844,-15.70888042,3.650849104
21.48050381,18.10529327,-15.54138279,3.894917011
21.49050381,18.32064629,-15.84287834,4.435695171
21.50050381,19.38784599,-15.53659725,5.593821049
21.51050381,19.83291054,-14.98624802,5.73260498
21.52050381,20.05783653,-14.03869057,4.995615482
21.53050381,20.05783653,-14.03869057,4.995615482
21.54050381,21.14417648,-12.05264759,2.315654039
21.55050381,21.81416702,-11.23430252,0.525822759
21.56050381,21.81416702,-11.23430252,0.525822759
21.57050381,21.81416702,-11.23430252,0.525822759
21.58050381,21.81416702,-11.23430252,0.525822759
21.59050381,26.51367188,-12.14836025,-6.791429043
21.60050381,26.56152725,-12.68913841,-7.609774113
21.61050381,25.92503738,-12.52642632,-7.719843864
21.62050381,25.44647217,-12.33021545,-7.054639339
21.63050381,26.43710136,-13.52184105,-4.240679741
21.64050381,27.13580513,-14.50289822,-3.020340443
21.65050381,27.49951363,-15.97209072,-1.986641049
21.66050381,27.49951363,-15.97209072,-1.986641049
21.67050381,27.49951363,-15.97209072,-1.986641049
21.68050381,25.02054977,-19.63789558,0.568893611
21.69050381,25.02054977,-19.63789558,0.568893611
21.70050381,25.02054977,-19.63789558,0.568893611
21.71050381,25.02054977,-19.63789558,0.568893611
21.72050381,21.62752724,-24.38047028,6.35952425
21.73050381,20.86660957,-25.11267281,6.177670002
21.74050381,20.37368774,-25.98366165,6.062814236
21.75050381,20.46940041,-26.12722969,6.632306099
21.76050381,20.46940041,-26.12722969,6.632306099
21.77050381,18.0095787,-26.103302,7.565506935
21.78050381,17.34916115,-26.06980324,7.2065835
21.79050381,16.48295784,-25.72523689,6.464808464
21.80050381,15.73161221,-24.94038963,5.928816319
21.81050381,15.58804321,-24.38047028,5.895316601
21.82050381,17.51187325,-24.34218407,6.656234264
21.83050381,18.99063683,-24.48096848,7.340581894
21.84050381,20.62732697,-24.72025108,7.957930088
21.85050381,22.2879467,-25.1748867,8.187641144
21.86050381,23.99163628,-26.21815681,8.379066467
21.87050381,25.84368134,-27.51985359,8.895915985
21.88050381,28.12643433,-30.06581688,9.63290596
21.89050381,28.12643433,-30.06581688,9.63290596
21.90050381,35.22833252,-43.67619324,13.51884937
21.91050381,35.29533005,-48.17469788,15.09811306
21.92050381,33.56771088,-51.44329453,17.02194214
21.93050381,31.9262352,-54.82196045,19.30948067
21.94050381,31.37110138,-59.10511398,22.22393799
21.95050381,31.37110138,-59.10511398,22.22393799
21.96050381,31.37110138,-59.10511398,22.22393799
21.97050381,31.37110138,-59.10511398,22.22393799
21.98050381,31.37110138,-59.10511398,22.22393799
21.99050381,-10.12044334,-57.33442307,31.97229767
22.00050381,-17.99283028,-48.68197632,30.95295525
22.01050381,-22.68754768,-42.7812767,29.09133911
22.02050381,-22.68754768,-42.7812767,29.09133911
22.03050381,-22.68754768,-42.7812767,29.09133911
22.04050381,-39.87758636,-31.4488678,-4.422534466
22.05050381,-43.36632156,-26.33301353,-11.01715374
22.06050381,-44.04109573,-22.43271255,-13.46740437
22.07050381,-41.02614212,-20.4179554,-11.43350506
22.08050381,-28.68874741,-18.59941101,-3.07298255
22.09050381,-23.38146591,-16.74258041,-0.976869822
22.10050381,-18.82553291,-15.22553062,-0.948155999
22.11050381,-15.078372,-14.45504189,-2.441277266
22.11050381,-18.82553291,-15.22553062,-0.948155999
22.13050381,-10.02473068,-13.65583897,-5.23130846
22.14050381,-10.02473068,-13.65583897,-5.23130846
22.15050381,-10.02473068,-13.65583897,-5.23130846
22.16050381,-10.02473068,-13.65583897,-5.23130846
22.17050381,-10.02473068,-13.65583897,-5.23130846
22.18050381,0.824327409,-13.29691505,2.105085611
22.19050381,2.61415863,-13.33041477,2.286940336
22.20050381,4.255635262,-13.21555901,2.387438774
22.21050381,4.255635262,-13.21555901,2.387438774
22.21050381,6.782455921,-12.78963661,1.923231244
22.23050381,8.668000221,-12.68435287,1.339382529
22.24050381,9.194420815,-12.90449238,1.009172916
22.25050381,9.500701904,-13.12463188,0.597607434
22.26050381,9.065208435,-12.75135231,-0.43609193
22.27050381,7.864011765,-11.25344467,-2.230708838
22.28050381,7.753942013,-10.89930725,-2.402992249
22.29050381,8.060222626,-10.9615202,-2.039283037
22.30050381,8.701499939,-11.4831562,-1.149153113
22.31050381,9.500701904,-11.96172047,0.099900343
22.32050381,10.21376324,-12.10050392,1.645663738
22.33050381,11.00339508,-12.22014523,3.215355396
22.34050381,12.62572861,-13.46441269,5.364109993
22.35050381,12.62572861,-13.46441269,5.364109993
22.36050381,12.62572861,-13.46441269,5.364109993
22.37050381,12.77408409,-14.71825218,5.837889194
22.38050381,12.79801178,-14.77089405,5.584249973
22.39050381,13.00858021,-14.96232033,5.072185993
22.40050381,13.00858021,-14.96232033,5.072185993
22.41050381,14.30549049,-15.498312,3.406781197
22.42050381,14.87498188,-15.73280907,2.856431961
22.43050381,15.49711609,-16.31665802,2.459223509
22.44050381,16.11446381,-16.87657738,2.334796667
22.45050381,16.68395615,-17.46521187,2.61714983
22.46050381,17.18644905,-18.18305969,3.076571703
22.47050381,17.4065876,-18.6233387,4.048057556
22.48050381,17.48315811,-18.43669891,4.220340729
22.49050381,17.93779564,-18.14477348,4.469194412
22.50050381,18.47857285,-18.01556206,4.48833704
22.51050381,19.14856339,-18.1591301,4.177269936
22.52050381,19.73241234,-18.23570061,3.445066452
22.53050381,20.10090637,-18.58983994,1.200598717
22.54050381,20.05783653,-18.74776459,0.41096729
22.55050381,19.90469551,-18.64726639,0.028115666
22.56050381,19.91426659,-18.25005913,0.056829538
22.57050381,20.17269135,-17.67578125,0.281754881
22.58050381,20.70868301,-17.00579071,0.420538574
22.59050381,20.70868301,-17.00579071,0.420538574
22.60050381,20.70868301,-17.00579071,0.420538574
22.61050381,20.70868301,-17.00579071,0.420538574
22.62050381,21.90509415,-12.80399418,-1.259222865
22.63050381,21.46960068,-12.07657623,-1.278365493
22.64050381,21.23989105,-11.4831562,-1.015154958
22.65050381,21.22553253,-11.09073257,-0.665802896
22.66050381,21.74238205,-9.702896118,0.262612283
22.67050381,22.3884449,-9.253045082,0.501894534
22.68050381,22.91486549,-9.119047165,0.382253408
22.69050381,23.44128609,-8.92283535,0.037686955
22.70050381,23.82413864,-9.152546883,-0.641874671
22.71050381,24.34098816,-9.793823242,-1.364507079
22.72050381,25.36511612,-11.05723381,-2.733201742
22.73050381,25.85803795,-12.15314579,-3.321835995
22.74050381,26.18824768,-13.58405399,-3.44147706
22.75050381,26.18824768,-13.58405399,-3.44147706
22.76050381,26.71466827,-16.47458458,-2.024926186
22.77050381,27.09273529,-18.29791451,-0.708873689
22.78050381,27.18366241,-20.41316986,0.77946198
22.79050381,27.18366241,-20.41316986,0.77946198
22.80050381,27.18366241,-20.41316986,0.77946198
22.81050381,21.22074699,-26.8307209,0.224327117
22.82050381,18.74656868,-26.07937431,-0.527019203
22.83050381,16.664814,-25.33281326,-0.67537421
22.84050381,15.30568981,-24.46661186,0.434895515
22.85050381,15.30568981,-24.46661186,0.434895515
22.86050381,15.96132374,-25.41416931,7.321439266
22.87050381,17.4305172,-25.5385952,7.622934818
22.88050381,17.4305172,-25.5385952,7.622934818
22.89050381,22.01037979,-25.30410004,5.076971531
22.90050381,25.31726074,-25.24188614,3.765704632
22.91050381,28.27000237,-24.72503662,2.894717216
22.92050381,34.29034424,-25.91666222,3.440280676
22.93050381,37.96572113,-28.71626472,4.521836758
22.94050381,41.44009781,-32.49692535,5.536393166
22.95050381,43.73720932,-36.92364502,6.661019802
22.96050381,44.78047943,-41.86721802,8.407780647
22.97050381,44.45505524,-47.78705978,10.46082211
22.98050381,39.06163406,-60.09095383,17.12722588
22.99050381,35.62554169,-67.17849731,22.32922363
23.00050381,35.62554169,-67.17849731,22.32922363
23.01050381,35.62554169,-67.17849731,22.32922363
23.02050381,18.01915169,-85.0098114,27.95235634
23.03050381,8.553144455,-82.99026489,26.70330238
23.04050381,-1.850848317,-75.54380035,25.53081894
23.05050381,-1.850848317,-75.54380035,25.53081894
23.06050381,-21.54377937,-49.22753906,23.48734856
23.07050381,-27.00898552,-43.26462555,20.23311043
23.08050381,-32.7039032,-38.99104309,13.83948803
23.09050381,-38.90610123,-33.2817688,6.163312912
23.10050381,-43.95016861,-25.94537544,-0.507876635
23.11050381,-43.95016861,-25.94537544,-0.507876635
23.12050381,-33.12504196,-18.27398682,-3.407977581
23.13050381,-26.37728119,-16.67558098,-1.733001828
23.14050381,-19.86401749,-15.76630878,-0.622732103
23.15050381,-14.23609829,-15.26381588,-1.000798106
23.16050381,-10.13001442,-14.54118347,-2.139781713
23.17050381,-4.8849473,-12.21057415,-3.16869545
23.18050381,-3.042474031,-11.3635149,-2.407777786
23.19050381,-1.372283816,-11.16730309,-1.220937729
23.20050381,-0.156729877,-11.3443718,-0.091525465
23.21050381,0.331405938,-10.96630573,0.702891648
23.22050381,0.163908347,-9.923035622,1.162313581
23.23050381,-0.099302143,-8.913264275,1.191027522
23.24050381,-0.099302143,-8.913264275,1.191027522
23.25050381,-0.099302143,-8.913264275,1.191027522
23.26050381,-0.099302143,-8.913264275,1.191027522
23.27050381,0.891326427,-6.95114994,0.559322298
23.28050381,1.312463164,-6.333801746,0.583250523
23.29050381,1.661815286,-5.793023586,0.415752947
23.30050381,1.661815286,-5.793023586,0.415752947
23.31050381,1.661815286,-5.793023586,0.415752947
23.32050381,3.939782381,-3.27577424,-1.374078393
23.33050381,3.939782381,-3.27577424,-1.374078393
23.34050381,4.815555573,-3.041277647,-3.178266764
23.35050381,5.227120876,-3.199203968,-3.594617844
23.36050381,5.65304327,-3.553341627,-3.814757586
23.37050381,6.538387775,-4.118047714,-4.393820763
23.38050381,6.653243542,-3.634697676,-4.2071805
23.39050381,6.796812534,-3.108276606,-3.240479946
23.40050381,6.796812534,-3.108276606,-3.240479946
23.41050381,8.289934158,-4.390829563,-2.034497499
23.42050381,9.428917885,-5.477170944,-1.852642894
23.43050381,9.428917885,-5.477170944,-1.852642894
23.44050381,11.07996559,-7.936992645,-1.244866014
23.45050381,10.62532902,-8.324629784,-0.895513892
23.46050381,10.62532902,-8.324629784,-0.895513892
23.47050381,9.089137077,-8.860622406,0.73160553
23.48050381,8.62014389,-9.253045082,1.928016901
23.49050381,8.634500504,-9.870393753,3.023929596
23.50050381,10.35254669,-12.0670042,3.732205153
23.51050381,11.7834549,-13.29212952,3.306282759
23.52050381,13.10429287,-14.34975719,2.554936409
23.53050381,13.10429287,-14.34975719,2.554936409
23.54050381,14.44427395,-15.32602882,0.123828575
23.55050381,14.74098396,-15.89073563,-0.799800992
23.56050381,14.74098396,-15.89073563,-0.799800992
23.57050381,14.74098396,-15.89073563,-0.799800992
23.58050381,15.43490219,-15.22074509,-1.24965167
23.59050381,15.35354614,-14.80439377,-0.976869822
23.60050381,15.08076477,-14.41675663,-0.742373228
23.61050381,14.93719578,-14.5268259,-0.263808697
23.62050381,14.93719578,-14.5268259,-0.263808697
23.63050381,16.52124405,-15.12503147,0.530608416
23.64050381,17.48794365,-14.64168167,0.406181633
23.65050381,19.1246357,-14.39282799,-0.110668048
23.66050381,19.1246357,-14.39282799,-0.110668048
23.67050381,19.1246357,-14.39282799,-0.110668048
23.68050381,19.1246357,-14.39282799,-0.110668048
23.69050381,19.1246357,-14.39282799,-0.110668048
23.70050381,19.1246357,-14.39282799,-0.110668048
23.71050381,19.1246357,-14.39282799,-0.110668048
23.72050381,23.59921265,-11.44008541,-9.256035805
23.73050381,24.0203495,-10.4350996,-8.380263329
23.74050381,24.33620262,-9.444471359,-7.289135933
23.75050381,24.33620262,-9.444471359,-7.289135933
23.76050381,24.33620262,-9.444471359,-7.289135933
23.76050381,24.3074894,-8.434700012,-4.336392879
23.78050381,24.05863571,-8.784051895,-2.656631231
23.79050381,24.40320206,-9.468399048,-2.21156621
23.80050381,25.0109787,-10.42552853,-2.19242382
23.81050381,25.44647217,-11.31087303,-2.350350142
23.82050381,25.36033058,-12.78485107,-2.383849621
23.83050381,25.39383125,-13.97647667,-2.627917528
23.84050381,25.39383125,-13.97647667,-2.627917528
23.85050381,26.68595505,-16.57508278,-2.948555708
23.86050381,26.68595505,-16.57508278,-2.948555708
23.87050381,28.76292419,-20.75295067,-2.015354872
23.88050381,28.76292419,-20.75295067,-2.015354872
23.89050381,28.76292419,-20.75295067,-2.015354872
23.90050381,28.76292419,-20.75295067,-2.015354872
23.91050381,28.76292419,-20.75295067,-2.015354872
23.92050381,30.58147049,-27.20400047,5.277968407
23.93050381,30.66282654,-28.17548752,5.751747608
23.94050381,31.05524826,-29.19482994,5.560321808
23.95050381,32.35694504,-32.36771011,4.000201225
23.96050381,32.80200958,-33.92304611,4.043272018
23.97050381,33.45285797,-35.16731262,4.933402061
23.98050381,34.39562988,-37.00021744,6.010172367
23.99050381,35.20919037,-39.0915451,6.866802692
24.00050381,35.65425491,-41.03930283,7.670791149
24.01050381,35.65425491,-41.03930283,7.670791149
24.02050381,34.11327744,-48.25605392,9.963115692
24.03050381,32.59622574,-51.49593735,10.08275604
24.04050381,30.75375366,-55.31966782,10.2406826
24.05050381,28.40400124,-58.91368484,10.83888817
24.06050381,25.16411972,-61.22036743,12.16451168
24.07050381,21.43610191,-62.12963867,14.9210434
24.08050381,21.43610191,-62.12963867,14.9210434
24.09050381,21.43610191,-62.12963867,14.9210434
24.10050381,4.671986103,-62.86184311,38.38506317
24.11050381,4.671986103,-62.86184311,38.38506317
24.12050381,-11.49870968,-52.99384308,32.76192856
24.13050381,-15.2410841,-50.95994568,24.19083786
24.14050381,-22.12762833,-46.18865585,3.067000389
24.15050381,-27.06162834,-41.93421555,-5.819942951
24.16050381,-33.07718277,-35.07160187,-11.14158058
24.17050381,-37.50390625,-28.09891701,-11.5579319
24.18050381,-38.82952881,-23.84926414,-8.538188934
24.19050381,-36.80998611,-22.42314148,-4.0157547
24.20050381,-26.35813713,-20.93001938,1.53080833
24.21050381,-20.92642975,-19.92024803,1.411167145
24.22050381,-16.60020638,-18.9870472,-0.349950314
24.23050381,-13.42253876,-17.94856262,-3.211766243
24.24050381,-11.0871439,-16.64208221,-6.585646152
24.25050381,-9.512666702,-15.19681644,-9.236893654
24.26050381,-8.474181175,-13.53141212,-10.38066292
24.27050381,-8.474181175,-13.53141212,-10.38066292
24.28050381,-8.474181175,-13.53141212,-10.38066292
24.29050381,-8.474181175,-13.53141212,-10.38066292
24.30050381,-3.631108284,-10.10967541,-2.776272535
24.31050381,-3.631108284,-10.10967541,-2.776272535
24.32050381,-1.965703845,-9.94696331,-0.622732103
24.33050381,-1.965703845,-9.94696331,-0.622732103
24.34050381,-1.965703845,-9.94696331,-0.622732103
24.35050381,-0.530010223,-9.779465675,0.760319412
24.36050381,0.010767702,-9.879964828,1.143171072
24.37050381,0.69511497,-10.2723875,1.521237016
24.38050381,1.389033556,-10.50688457,1.875374794
24.39050381,2.303091764,-10.67438221,2.105085611
24.40050381,4.911268711,-11.55494022,1.602592945
24.41050381,6.413960934,-12.04307652,1.171884894
24.42050381,7.744370461,-12.43071365,0.68374908
24.43050381,7.744370461,-12.43071365,0.68374908
24.44050381,9.237491608,-13.09113312,-0.11545369
24.45050381,9.180064201,-13.32562923,-0.574875653
