Time (s),Acceleration x (m/s^2),Acceleration y (m/s^2),Acceleration z (m/s^2)
0.048150054,3.762713671,0.078963146,10.54696369
0.056805783,3.992424488,1.385444283,9.149555206
0.066805783,2.992224693,1.988435626,8.958129883
0.076805783,1.987239242,2.069791555,8.704490662
0.086805783,1.403390527,1.964507341,9.216554642
0.096805783,0.876969516,1.883151412,10.31725311
0.106805783,0.939182878,1.677368641,9.83868885
0.116805783,1.709671736,0.978664458,8.359924316
0.126805783,1.044467092,-0.193818629,8.417351723
0.136805783,0.50368917,-0.533599436,8.063214302
0.146805783,-0.070588268,-0.25603202,9.039485931
0.156805783,-0.453439891,0.452243477,10.36032391
0.166805783,-0.453439891,0.452243477,10.36032391
0.176805783,0.556331277,1.318445325,10.27896786
0.186805783,0.556331277,1.318445325,10.27896786
0.196805783,0.355334163,2.849851847,5.708676815
0.206805783,-0.137587309,2.778067112,7.287939548
0.216805783,-0.309870541,2.596212626,7.431509018
0.226805783,-0.587437987,2.897708178,6.972086906
0.236805783,-1.290927768,3.371487141,7.579864025
0.246805783,-2.051845312,4.007977962,8.154141426
0.256805783,-3.678964853,6.352943897,6.503093719
0.266805783,-4.540380955,7.439285755,6.393023968
0.276805783,-4.889732838,7.075576782,7.41236639
0.286805783,-4.889732838,7.075576782,7.41236639
0.296805783,-1.692921996,0.538385093,8.94377327
0.306805783,-0.386440843,-2.127219439,8.283353806
0.316805783,-0.386440843,-2.127219439,8.283353806
0.326805783,-0.386440843,-2.127219439,8.283353806
0.336805783,-3.477967739,1.351944804,8.517850876
0.346805783,-3.477967739,1.351944804,8.517850876
0.356805783,-4.70787859,0.519242525,8.469993591
0.366805783,-4.70787859,0.519242525,8.469993591
0.376805783,-3.774677753,-2.347358942,7.833503246
0.386805783,-3.774677753,-2.347358942,7.833503246
0.396805783,-3.774677753,-2.347358942,7.833503246
0.406805783,-7.856832981,0.002392823,8.948558807
0.416805783,-7.052844524,0.20817557,9.139984131
0.426805783,-6.421139717,-0.667597532,9.479764938
0.436805783,-5.435296535,-1.653440475,10.22632599
0.446805783,-5.435296535,-1.653440475,10.22632599
0.456805783,-3.712464333,-2.079362869,13.65763378
0.466805783,-2.803191662,-1.916650891,15.16989708
0.476805783,-1.659422517,-1.90229404,15.90688705
0.486805783,-0.218943268,-2.160718918,16.87358665
0.496805783,1.111466169,-2.203789711,18.11785507
0.506805783,2.274377823,-2.194218397,17.73500252
0.516805783,2.274377823,-2.194218397,17.73500252
0.526805783,2.274377823,-2.194218397,17.73500252
0.536805783,4.10249424,-2.868994236,15.92602921
0.546805783,4.719842434,-2.806781054,15.46660709
0.556805783,5.432903767,-2.840280533,14.86361599
0.566805783,5.992824078,-3.074777126,14.27019596
0.576805783,5.992824078,-3.074777126,14.27019596
0.586805783,6.480959892,-4.0127635,11.88215923
0.596805783,6.586244106,-4.161118507,11.57587814
0.606805783,6.887740135,-4.649254322,11.3892374
0.616805783,7.24666357,-5.52981329,11.37966633
0.626805783,8.088936806,-6.257231236,11.68594742
0.636805783,8.088936806,-6.257231236,11.68594742
0.646805783,11.802598,-9.056833267,10.43210888
0.656805783,12.57308674,-9.784252167,10.16889763
0.666805783,14.01835155,-10.3776722,10.83888817
0.676805783,16.10489273,-10.861022,11.95872974
0.686805783,18.57428551,-11.8468647,13.24128246
0.696805783,21.28296089,-13.12941742,14.24148178
0.706805783,28.00679207,-14.52204037,15.34696579
0.716805783,30.7346096,-15.32602882,14.57647705
0.726805783,32.78286743,-16.18265915,13.68634701
0.736805783,32.78286743,-16.18265915,13.68634701
0.746805783,36.5826683,-19.40339851,13.51884937
0.756805783,37.55415344,-22.01636124,14.42812252
0.766805783,36.78845215,-29.63510895,17.61536217
0.776805783,36.78845215,-29.63510895,17.61536217
0.786805783,34.53441238,-39.18725586,25.29153633
0.796805783,32.34737396,-43.91068649,29.00041199
0.806805783,29.75833893,-47.60042191,32.07279587
0.816805783,31.20838928,-53.52026367,35.2648201
0.826805783,31.0600338,-62.10571289,31.60380363
0.836805783,31.0600338,-62.10571289,31.60380363
0.846805783,21.45524406,-86.02436829,23.01357079
0.856805783,13.39143181,-81.7077179,28.43570518
0.866805783,8.701499939,-78.81718445,28.29213715
0.876805783,6.490531445,-79.07082367,24.66940308
0.886805783,3.016152859,-78.28119659,20.62074661
0.896805783,-10.28794098,-69.47560883,21.24766731
0.906805783,-17.05962944,-62.98148346,22.58286285
0.916805783,-22.65883446,-56.3342247,17.26601028
0.926805783,-26.41077995,-48.87818909,12.03051376
0.936805783,-26.41077995,-48.87818909,12.03051376
0.946805783,-36.81477356,-31.80300522,10.83410263
0.956805783,-37.17369461,-25.12703133,9.278767586
0.966805783,-37.17369461,-25.12703133,9.278767586
0.976805783,-8.766105652,-21.56172562,8.714061737
0.986805783,-0.405583441,-20.33659935,10.02532864
0.996805783,4.533202648,-18.36491394,11.09252739
1.006805783,6.959524632,-15.92901993,11.01595688
1.016805783,7.256234646,-13.02891922,10.29332447
1.026805783,7.256234646,-13.02891922,10.29332447
1.036805783,0.537188709,-4.285545349,7.575078487
1.046805783,-1.075573802,-2.935993433,5.837889194
1.056805783,-1.075573802,-2.935993433,5.837889194
1.066805783,-2.889333248,-1.194018483,2.598007202
1.076805783,-3.162115097,-0.476171702,1.415952802
1.086805783,-3.233899832,0.136390895,0.521037102
1.096805783,-3.233899832,0.136390895,0.521037102
1.106805783,-1.262213945,-0.39960137,3.406781197
1.116805783,-0.573081017,-0.313459754,5.469394207
1.126805783,0.24047868,-0.423529595,7.240083218
1.136805783,0.269192547,-0.677168787,7.838288784
1.146805783,-0.324227482,-0.681954443,7.852645874
1.156805783,-1.601994753,-0.064606212,8.115856171
1.166805783,-2.003988981,-0.150747821,7.661220074
1.176805783,-2.003988981,-0.524028182,7.125227451
1.186805783,-1.621137381,-0.792024314,7.22094059
1.196805783,-1.042074203,-0.91166544,7.895716667
1.206805783,-0.563509762,-1.088734269,8.24506855
1.216805783,-0.563509762,-1.088734269,8.24506855
1.226805783,-0.563509762,-1.088734269,8.24506855
1.236805783,0.125623181,-1.763510346,7.297510624
1.246805783,0.699900627,-1.710868239,7.321439266
1.256805783,1.403390527,-1.763510346,7.551149845
1.266805783,2.255235434,-1.878365755,8.020143509
1.276805783,3.064009428,-2.108076811,8.891130447
1.286805783,3.064009428,-2.108076811,8.891130447
1.296805783,3.064009428,-2.108076811,8.891130447
1.306805783,3.064009428,-2.108076811,8.891130447
1.316805783,3.633501291,-2.682354212,10.61396313
1.326805783,3.293720484,-2.78285265,10.95374393
1.336805783,3.652643681,-2.945564747,11.82473087
1.346805783,3.652643681,-2.945564747,11.82473087
1.356805783,5.495117188,-2.768495798,12.96850014
1.366805783,5.772684574,-2.385644197,12.7005043
1.376805783,5.767899036,-1.911865234,12.1980114
1.386805783,5.485546112,-1.533799291,11.67637634
1.396805783,5.14097929,-1.270588875,11.58544922
1.406805783,4.719842434,-1.232303619,11.80080318
1.416805783,4.719842434,-1.232303619,11.80080318
1.426805783,4.719842434,-1.232303619,11.80080318
1.436805783,4.719842434,-1.232303619,11.80080318
1.446805783,6.552744865,-4.577469826,14.26062489
1.456805783,7.53858757,-5.127819061,14.29891014
1.466805783,8.390432358,-5.568098068,13.93520069
1.476805783,8.390432358,-5.568098068,13.93520069
1.486805783,9.519845009,-6.932007313,12.2602253
1.496805783,9.87398243,-8.018348694,11.57109165
1.506805783,10.06062317,-9.142974854,11.03031445
1.516805783,10.21376324,-10.13838959,10.69531918
1.526805783,10.35733318,-10.82273674,10.6235342
1.536805783,10.53918743,-11.07637596,10.88195896
1.546805783,10.53918743,-11.07637596,10.88195896
1.556805783,10.53918743,-11.07637596,10.88195896
1.566805783,12.29073334,-9.7698946,9.690333366
1.576805783,12.5060873,-9.875179291,8.388637543
1.586805783,12.6687994,-10.28674412,7.259225845
1.596805783,12.60180092,-10.56431198,6.450451851
1.606805783,11.58245754,-10.35374355,6.780661106
1.616805783,11.57288647,-10.62652493,7.579864025
1.626805783,11.57288647,-10.62652493,7.579864025
1.636805783,14.07577896,-11.82293701,10.31246758
1.646805783,15.73639774,-12.2919302,10.93938732
1.656805783,18.04307938,-12.78006554,10.90110207
1.666805783,21.47917175,-13.1581316,8.513064384
1.676805783,21.47917175,-13.1581316,8.513064384
1.686805783,21.47917175,-13.1581316,8.513064384
1.696805783,21.47917175,-13.1581316,8.513064384
1.706805783,32.35215759,-18.89133453,8.661419868
1.716805783,35.40539932,-19.81496429,9.958329201
1.726805783,37.74079514,-20.882164,11.32702446
1.736805783,37.74079514,-20.882164,11.32702446
1.746805783,41.00939178,-34.32982635,12.79621696
1.756805783,37.70729446,-41.45565414,13.11207008
1.766805783,32.52444077,-46.31308365,15.79681683
1.776805783,28.09771919,-53.86004639,20.69253159
1.786805783,22.65644073,-57.37749481,30.30210686
1.796805783,20.06262207,-61.93821335,46.18087769
1.806805783,23.36471748,-69.63352966,38.78227234
1.816805783,18.95235252,-71.47600555,28.78027344
1.826805783,17.33480453,-73.43811798,21.08495522
1.836805783,19.22991943,-86.69914246,14.38026619
1.846805783,14.63569927,-100.5822983,8.235497475
1.856805783,-0.865005374,-92.31270599,10.20718288
1.866805783,-0.865005374,-92.31270599,10.20718288
1.876805783,-0.865005374,-92.31270599,10.20718288
1.876805783,-33.00061417,-44.9013176,25.29632187
1.896805783,-34.77130127,-36.24887085,18.6107769
1.906805783,-34.55594635,-32.58306503,13.5092783
1.916805783,-32.82833099,-28.70190811,8.379066467
1.926805783,-25.6259346,-24.30389977,-1.340578914
1.936805783,-22.56790733,-20.59502411,-1.809572101
1.946805783,-19.15574074,-17.66621017,0.870389223
1.956805783,-15.078372,-15.87159252,4.392624378
1.966805783,-10.7042923,-14.77089405,7.508079052
1.976805783,-6.167500496,-14.08176136,10.23589706
1.986805783,-2.472982168,-13.50748348,12.05444241
1.996805783,-2.472982168,-13.50748348,12.05444241
2.006805783,-2.472982168,-13.50748348,12.05444241
2.016805783,-2.472982168,-13.50748348,12.05444241
2.026805783,1.532602906,-6.635297298,4.698905468
2.036805783,1.379462242,-5.280959606,2.913859844
2.046805783,1.317248821,-4.189832687,1.827518344
2.056805783,1.317248821,-4.189832687,1.827518344
2.066805783,2.030309916,-2.433500528,1.071386337
2.076805783,2.030309916,-2.433500528,1.071386337
2.086805783,1.015753269,-1.830509305,2.947359324
2.086805783,2.030309916,-2.433500528,1.071386337
2.106805783,0.474975288,-2.074577332,6.086742401
2.116805783,0.474975288,-2.074577332,6.086742401
2.126805783,0.474975288,-2.074577332,6.086742401
2.136805783,1.700100541,-2.725425005,10.21196842
2.146805783,2.159522533,-2.591426849,9.920044899
2.156805783,2.317448616,-2.495713949,8.996415138
2.166805783,2.317448616,-2.433500528,8.101499557
2.176805783,2.226521492,-2.304288149,7.441080093
2.186805783,2.42273283,-2.744567633,7.613363266
2.196805783,3.040081263,-3.175275564,8.513064384
2.206805783,3.79621315,-3.577269793,9.503693581
2.216805783,3.79621315,-3.577269793,9.503693581
2.226805783,6.701099873,-5.300102234,10.49432182
2.236805783,8.084151268,-5.893522263,10.14496994
2.246805783,8.084151268,-5.893522263,10.14496994
2.256805783,8.433503151,-5.931807518,9.80997467
2.266805783,8.026723862,-6.486942291,10.16889763
2.276805783,7.629515171,-7.128218651,10.67617607
2.286805783,7.624729156,-7.630711555,11.4323082
2.296805783,7.935796261,-7.89870739,12.11186981
2.306805783,8.462217331,-7.960920811,12.87278748
2.316805783,8.304290771,-7.247859955,14.5381918
2.326805783,7.758727551,-7.343572617,15.11246967
2.336805783,7.284948349,-7.855636597,15.25125313
2.346805783,7.174878597,-8.501698494,15.41875076
2.356805783,7.174878597,-9.09990406,15.34218025
2.366805783,7.471588612,-9.616754532,15.16989708
2.376805783,7.471588612,-9.616754532,15.16989708
2.386805783,7.471588612,-9.616754532,15.16989708
2.396805783,7.471588612,-9.616754532,15.16989708
2.406805783,13.00858021,-8.243273735,11.88215923
2.416805783,13.4967165,-7.678567886,11.20738316
2.426805783,13.93699551,-7.831708431,10.49910736
2.436805783,14.11406422,-8.137989998,9.876974106
2.446805783,14.19063473,-8.300702095,10.37468052
2.456805783,14.03749371,-8.501698494,11.20738316
2.466805783,13.91785336,-9.114261627,12.04965687
2.476805783,13.72164154,-9.549755096,12.57607746
2.486805783,13.39143181,-9.439684868,12.90628719
2.496805783,13.19521999,-9.31525898,13.11207008
2.506805783,13.89871025,-9.779465675,12.40379429
2.516805783,13.89871025,-9.779465675,12.40379429
2.526805783,13.89871025,-9.779465675,12.40379429
2.536805783,17.52622986,-11.47837067,11.68116188
2.546805783,19.09113503,-11.966506,11.76251793
2.556805783,20.93360901,-12.4115715,12.05444241
2.566805783,23.02972221,-13.02891922,12.16451168
2.576805783,30.60061264,-14.79003716,12.60479164
2.586805783,35.1900444,-16.55594063,11.92044449
2.596805783,38.37250137,-18.42712784,11.13559818
2.606805783,41.28217316,-21.25544357,10.37946606
2.616805783,43.20121765,-25.21795845,9.819545746
2.626805783,43.86642075,-30.156744,10.27418232
2.636805783,40.32025909,-43.55654907,15.52882099
2.646805783,36.09931946,-50.25166702,19.28076744
2.656805783,32.12244797,-59.04290009,21.9990139
2.666805783,27.52344322,-69.18846893,23.58784676
2.676805783,23.1158638,-77.89833832,26.33002281
2.676805783,23.1158638,-77.89833832,26.33002281
2.696805783,23.1158638,-77.89833832,26.33002281
2.706805783,23.1158638,-77.89833832,26.33002281
2.716805783,23.1158638,-77.89833832,26.33002281
2.726805783,12.82194042,-93.08798218,8.527421951
2.736805783,11.79302597,-108.3876877,3.440280676
2.746805783,-0.869791031,-99.41460419,1.171884894
2.756805783,-23.38146591,-71.60043335,8.647063255
2.766805783,-45.56771851,-16.97707748,10.35075283
2.776805783,-45.56771851,-16.97707748,10.35075283
2.786805783,-45.56771851,-16.97707748,10.35075283
2.796805783,-45.56771851,-16.97707748,10.35075283
2.806805783,-16.7533474,-18.06341743,15.41396523
2.816805783,-11.5704937,-19.4512558,12.30808163
2.826805783,-11.5704937,-19.4512558,12.30808163
2.836805783,-12.7812624,-11.59322548,0.473180681
2.846805783,-12.7812624,-11.59322548,0.473180681
2.856805783,-12.48455238,-6.142375946,-2.288136721
2.866805783,-10.0965147,-5.711667538,-0.48394838
2.876805783,-7.378268719,-6.128018856,2.42572403
2.886805783,-4.91366148,-6.486942291,5.636891842
2.896805783,-1.496710539,-6.807580471,10.86281681
2.906805783,-1.496710539,-6.807580471,10.86281681
2.916805783,-0.271585375,-6.290730953,11.70987606
2.926805783,-0.530010223,-5.534598827,10.96331501
2.936805783,-1.185643673,-4.945964336,9.628120422
2.946805783,-1.913061738,-4.630111694,8.015357971
2.956805783,-2.377269268,-4.453042984,5.388038158
2.966805783,-2.377269268,-4.453042984,5.388038158
2.976805783,-2.377269268,-4.453042984,5.388038158
2.986805783,-2.377269268,-4.453042984,5.388038158
2.996805783,-2.429911375,-1.969292998,3.239283562
3.006805783,-1.836491346,-2.524427891,3.358924866
3.016805783,-1.089930773,-3.237488985,3.650849104
3.026805783,0.254835606,-4.04147768,4.775475979
3.036805783,0.594616413,-3.816552162,5.952744484
3.046805783,0.79082787,-3.314059258,7.642077446
3.056805783,1.269392371,-3.098705292,9.278767586
3.066805783,1.269392371,-3.098705292,9.278767586
3.076805783,3.767499208,-4.108476639,11.0063858
3.086805783,3.767499208,-4.108476639,11.0063858
3.096805783,3.767499208,-4.108476639,11.0063858
3.106805783,3.767499208,-4.108476639,11.0063858
3.116805783,7.064808846,-1.859223247,5.148756027
3.126805783,6.629314899,-1.509871125,4.703691006
3.136805783,6.409175396,-1.95015049,4.789832592
3.146805783,6.476174355,-2.897708178,5.244469166
3.156805783,6.260820389,-4.252045631,7.086942673
3.166805783,5.691328526,-4.242474556,8.824131966
3.176805783,5.026124001,-3.945764542,11.21695423
3.186805783,4.490131855,-3.907479286,13.34178066
3.196805783,4.413561344,-4.319045067,14.83011627
3.206805783,4.638486862,-5.022534847,15.28475285
3.216805783,5.85882616,-6.458228111,13.39920902
3.226805783,6.686742783,-6.525227547,11.70987606
3.236805783,6.964310169,-6.209374905,10.02532864
3.246805783,6.763313293,-5.821737289,9.178269386
3.256805783,6.605386734,-6.104090691,9.585049629
3.266805783,6.605386734,-6.104090691,9.585049629
3.276805783,6.605386734,-6.104090691,9.585049629
3.286805783,6.605386734,-6.104090691,9.585049629
3.296805783,10.22333431,-10.62173939,13.66720486
3.306805783,11.40060329,-10.8179512,12.35115242
3.316805783,12.3481617,-10.96630573,10.67617607
3.326805783,12.70229912,-10.93759251,8.929415703
3.336805783,12.38166046,-11.00937653,7.862216949
3.346805783,9.558130264,-11.32044411,8.288139343
3.356805783,8.065009117,-11.526227,10.15932655
3.366805783,8.065009117,-11.526227,10.15932655
3.376805783,8.065009117,-11.526227,10.15932655
3.386805783,9.371489525,-13.01456261,17.20379639
3.396805783,9.371489525,-13.01456261,17.20379639
3.406805783,9.371489525,-13.01456261,17.20379639
3.416805783,9.371489525,-13.01456261,17.20379639
3.426805783,11.72602749,-12.59821129,8.938986778
3.436805783,12.39123249,-12.73220921,8.795417786
3.446805783,13.5972147,-13.04806232,9.91047287
3.456805783,15.05205059,-13.50269794,11.03031445
3.466805783,16.63131332,-13.87597847,11.87258816
3.476805783,16.63131332,-13.87597847,11.87258816
3.486805783,22.54637146,-14.71346664,11.12602711
3.496805783,25.34597397,-15.0723896,10.7862463
3.506805783,27.42772865,-14.79960823,10.11147022
3.516805783,29.81098175,-14.77567959,9.862616539
3.526805783,33.2805748,-16.03909111,9.900901794
3.536805783,38.1380043,-20.40359879,8.632705688
3.546805783,38.62614059,-22.06900406,8.546564102
3.556805783,38.64528275,-24.20340157,9.273982048
3.566805783,38.34378815,-29.00340271,9.393623352
3.576805783,38.34378815,-29.00340271,9.393623352
3.586805783,32.97429276,-41.79543304,13.66241932
3.596805783,32.97429276,-41.79543304,13.66241932
3.606805783,32.97429276,-41.79543304,13.66241932
3.616805783,32.97429276,-41.79543304,13.66241932
3.626805783,11.17089272,-79.48717499,16.39023781
3.636805783,9.749555588,-83.8947525,11.61894894
3.646805783,6.461817741,-90.08737946,4.301696777
3.656805783,0.460618347,-92.92527008,-2.187638044
3.666805783,-13.7671051,-87.8094101,-11.02672482
3.676805783,-28.46382141,-69.22675323,-8.408976555
3.676805783,-28.46382141,-69.22675323,-8.408976555
3.696805783,-49.4201622,-21.94457626,25.93759918
3.706805783,-34.10131073,-22.8394928,20.12304115
3.716805783,-19.32802582,-25.71087837,15.62931919
3.726805783,-13.47996616,-21.91586304,13.5284214
3.736805783,-7.622336388,-16.68036652,5.1296134
3.746805783,-7.622336388,-16.68036652,5.1296134
3.756805783,-7.622336388,-16.68036652,5.1296134
3.766805783,-5.42572546,-9.889535904,3.521636724
3.776805783,-5.42572546,-9.889535904,3.521636724
3.786805783,-2.18105793,-9.79860878,7.914859295
3.796805783,-2.18105793,-9.79860878,7.914859295
3.806805783,2.633301258,-7.999206066,13.82991695
3.816805783,4.040280819,-7.558926582,14.5381918
3.826805783,4.825126648,-6.994220734,14.9210434
3.836805783,5.117051125,-6.324230194,14.67219067
3.846805783,4.901697159,-5.520241737,13.86341572
3.856805783,4.901697159,-5.520241737,13.86341572
3.866805783,3.70050025,-4.15633297,10.89153004
3.876805783,3.427718401,-4.122833252,9.70468998
3.886805783,3.317648649,-3.988835335,8.699705124
3.896805783,3.341576815,-3.649054527,7.867002487
3.906805783,3.442075491,-3.256631613,7.445865631
3.916805783,3.609572887,-2.859423161,7.225726128
3.926805783,3.772284985,-1.840080619,7.666005611
3.936805783,3.714857101,-1.586441398,8.316853523
3.946805783,3.714857101,-1.586441398,8.316853523
3.956805783,3.714857101,-1.586441398,8.316853523
3.966805783,3.719642878,-2.122433662,9.752547264
3.976805783,3.662214994,-2.318645239,9.221340179
3.986805783,3.662214994,-2.318645239,9.221340179
3.996805783,3.662214994,-2.318645239,9.221340179
4.006805783,3.662214994,-2.318645239,9.221340179
4.016805783,2.202593327,-1.318445325,8.996415138
4.026805783,2.542374134,-1.768295884,9.618548393
4.036805783,3.083152056,-2.213361025,9.948758125
4.046805783,3.681357622,-2.596212626,9.843474388
4.056805783,4.552345276,-2.390429735,9.192625999
4.066805783,4.753342152,-1.921436548,8.800203323
4.076805783,4.829912663,-1.701296926,8.235497475
4.086805783,4.829912663,-1.701296926,8.235497475
4.086805783,4.916054249,-1.820937991,7.498507977
4.106805783,5.164907455,-2.457428932,6.273382664
4.116805783,5.164907455,-2.457428932,6.273382664
4.126805783,4.896911621,-2.007578135,6.905087948
4.136805783,5.136193752,-2.165504456,7.536793232
4.146805783,5.600401402,-2.610569477,7.996214867
4.156805783,6.021538258,-3.055634499,8.077570915
4.166805783,6.145965099,-3.285345554,8.09671402
4.176805783,6.078966141,-3.242274761,8.283353806
4.186805783,6.078966141,-3.242274761,8.283353806
4.196805783,4.82034111,-3.06999135,9.350552559
4.206805783,4.48534584,-3.481556892,9.76211834
4.216805783,4.32263422,-3.969692707,9.958329201
4.226805783,4.32263422,-3.969692707,9.958329201
4.236805783,4.724628448,-4.630111694,10.2406826
4.246805783,4.724628448,-4.630111694,10.2406826
4.256805783,4.724628448,-4.630111694,10.2406826
4.266805783,4.724628448,-4.630111694,10.2406826
4.276805783,4.236492634,-5.276174068,10.55174923
4.286805783,4.533202648,-5.826523304,11.41316605
4.296805783,5.820540905,-6.678368092,13.03071404
4.306805783,5.820540905,-6.678368092,13.03071404
4.316805783,5.820540905,-6.678368092,13.03071404
4.326805783,12.77408409,-9.109476089,15.91645813
4.336805783,14.97069454,-10.31067276,15.2225399
4.346805783,17.79901123,-12.15314579,14.12184143
4.356805783,20.67996979,-14.03390503,13.246068
4.366805783,23.81456757,-14.90489197,14.13619804
4.376805783,30.8590374,-15.76152229,19.50569153
4.386805783,30.8590374,-15.76152229,19.50569153
4.396805783,35.07997513,-16.46979904,22.0372982
4.406805783,36.81238174,-18.48455429,21.01317024
4.416805783,37.80779266,-20.34617043,19.69711685
4.426805783,38.29114532,-22.39442635,18.60599136
4.436805783,38.29114532,-22.39442635,18.60599136
4.446805783,39.99961853,-31.60200882,21.96551323
4.456805783,39.99961853,-31.60200882,21.96551323
4.466805783,39.99961853,-31.60200882,21.96551323
4.476805783,37.25265884,-53.47240829,25.96152687
4.486805783,32.9551506,-60.41159439,26.63630295
4.496805783,31.44288635,-69.91588593,27.12443924
4.506805783,31.44288635,-69.91588593,27.12443924
4.516805783,17.39223099,-98.72068024,15.48096466
4.526805783,11.77388382,-101.8313522,10.65703392
4.536805783,5.547759533,-98.75418091,8.355138779
4.546805783,-0.764506817,-88.82875824,9.226125717
4.556805783,-5.971288681,-77.52984619,11.0494566
4.566805783,-12.12084293,-58.54519272,8.58006382
4.576805783,-12.15434265,-52.26642609,6.981658459
4.586805783,-11.08235836,-48.3278389,5.378467083
4.596805783,-12.79561901,-43.85804749,2.789433002
4.606805783,-18.49053764,-36.268013,1.612164259
4.616805783,-24.95115852,-26.60579491,1.559522152
4.626805783,-29.04288483,-19.92024803,2.267797709
4.636805783,-29.04288483,-19.92024803,2.267797709
4.646805783,-29.04288483,-19.92024803,2.267797709
4.656805783,-29.04288483,-19.92024803,2.267797709
4.666805783,-15.31765461,-11.19601727,6.18245554
4.676805783,-9.684949875,-10.88016415,6.460022926
4.686805783,-4.947160721,-10.55474091,7.125227451
4.696805783,-4.947160721,-10.55474091,7.125227451
4.706805783,2.331805706,-8.865407944,11.36052418
4.716805783,2.513660192,-7.802994728,11.90608692
4.726805783,1.661815286,-6.56829834,11.50887871
4.736805783,0.321834654,-5.505885124,10.27896786
4.746805783,0.321834654,-5.505885124,10.27896786
4.756805783,-2.080559254,-3.519842148,6.952944279
4.766805783,-3.535395384,-2.404786825,4.004986763
4.776805783,-3.913461447,-2.538784742,3.081357241
4.786805783,-3.923032761,-3.022135019,2.736790895
4.796805783,-3.583251953,-3.639483213,2.837289333
4.806805783,-2.860619545,-4.15633297,3.177070379
4.816805783,-2.032702923,-4.496113777,3.54556489
4.826805783,-0.357726991,-4.735395908,5.488536835
4.836805783,0.570688188,-4.610969067,6.689733982
4.846805783,1.365105271,-4.505684853,7.656434059
4.856805783,1.365105271,-4.505684853,7.656434059
4.866805783,2.24566412,-4.649254322,8.661419868
4.876805783,2.24566412,-4.649254322,8.661419868
4.886805783,2.24566412,-4.649254322,8.661419868
4.896805783,2.24566412,-4.649254322,8.661419868
4.906805783,2.24566412,-4.649254322,8.661419868
4.916805783,2.24566412,-4.649254322,8.661419868
4.926805783,2.872583628,-4.266402721,4.995615482
4.936805783,4.222135544,-5.056034088,5.120042324
4.946805783,5.198407173,-5.40060091,5.65603447
4.956805783,4.992624283,-4.831109047,8.972486496
4.966805783,4.772484779,-4.491328239,11.47537899
4.976805783,4.652843475,-4.55354166,13.55713463
4.986805783,5.026124001,-5.424529076,15.36610889
4.996805783,5.81096983,-6.769295216,15.98345661
5.006805783,7.222734928,-8.10449028,15.01197147
5.016805783,7.222734928,-8.10449028,15.01197147
5.026805783,7.222734928,-8.10449028,15.01197147
5.036805783,7.222734928,-8.10449028,15.01197147
5.046805783,12.90329647,-6.549155712,8.082356453
5.046805783,12.90329647,-6.549155712,8.082356453
5.066805783,11.63510036,-6.491727829,7.072585583
5.076805783,9.964909554,-6.711867332,7.369295597
5.086805783,9.964909554,-6.711867332,7.369295597
5.096805783,4.968696117,-8.501698494,10.2406826
5.106805783,3.954139471,-8.726624489,12.14058399
5.116805783,3.499503136,-9.162117958,14.03091335
5.126805783,3.633501291,-10.01396275,15.00239944
5.136805783,3.939782381,-11.07159042,14.72961807
5.146805783,3.939782381,-11.07159042,14.72961807
5.156805783,3.939782381,-11.07159042,14.72961807
5.166805783,6.624529362,-11.97607708,9.26919651
5.176805783,7.122236729,-11.92822075,8.417351723
5.186805783,7.964509964,-12.32064342,8.235497475
5.196805783,9.615557671,-13.1772747,8.661419868
5.206805783,11.4197464,-13.8041935,9.608977318
5.216805783,17.51187325,-14.63689613,11.35095215
5.226805783,29.992836,-17.36949921,10.91545868
5.236805783,31.55774117,-14.3689003,11.997015
5.246805783,22.13480568,-7.889136314,12.82493114
5.256805783,15.73161221,-6.898507595,12.34158134
5.266805783,17.14816284,-13.44527054,12.28415298
5.276805783,24.62334061,-20.04467583,11.18345451
5.286805783,26.96352196,-17.52742577,12.40857983
5.296805783,28.65285492,-15.37867069,13.04507065
5.306805783,30.54318428,-14.42154217,12.26979637
5.316805783,33.22314453,-14.97667694,11.22173977
5.326805783,35.96053696,-16.92443466,9.886545181
5.336805783,35.96053696,-16.92443466,9.886545181
5.346805783,35.96053696,-16.92443466,9.886545181
5.356805783,39.80340958,-31.51586723,6.976872444
5.366805783,36.67838287,-34.6361084,9.42712307
5.376805783,34.06063461,-39.15854263,14.16969776
5.386805783,31.48595619,-46.54279327,19.43390656
5.396805783,28.55714226,-55.12345505,24.19083786
5.406805783,21.31645966,-72.27042389,24.40619278
5.416805783,18.60778618,-81.76036072,19.60140419
5.426805783,14.40120316,-87.88119507,15.44746494
5.436805783,8.940781593,-87.6084137,13.81077385
5.446805783,8.490931511,-89.08718109,13.1264267
5.456805783,8.251648903,-95.35159302,7.335795879
5.466805783,8.251648903,-95.35159302,7.335795879
5.476805783,8.251648903,-95.35159302,7.335795879
5.486805783,8.251648903,-95.35159302,7.335795879
5.496805783,-27.23869705,-62.30670929,-4.317250252
5.506805783,-45.43850708,-31.87000465,-3.637688637
5.516805783,-58.31188965,-8.176275253,-2.508276224
5.526805783,-43.29932404,-21.1214447,-7.738986492
5.536805783,-43.29932404,-21.1214447,-7.738986492
5.546805783,-22.05584335,-20.36531258,0.133399859
5.556805783,-18.52403641,-19.82453537,-1.924427629
5.566805783,-17.36590958,-16.30708694,-3.230908871
5.576805783,-15.91107464,-13.12941742,-2.637488842
5.586805783,-13.25982666,-11.65065384,-0.474377096
5.596805783,-13.25982666,-11.65065384,-0.474377096
5.606805783,-13.25982666,-11.65065384,-0.474377096
5.616805783,-13.25982666,-11.65065384,-0.474377096
5.626805783,-2.463410854,-6.884150982,8.982057571
5.636805783,-1.917847395,-5.711667538,7.852645874
5.646805783,-1.735992789,-4.84546566,6.785446644
5.656805783,-1.271785259,-4.285545349,6.010172367
5.666805783,-0.3912265,-3.347558975,5.584249973
5.676805783,0.120837547,-2.940778971,5.225326538
5.686805783,0.83868432,-2.620140791,4.536193371
5.696805783,1.499103427,-2.495713949,3.818346739
5.706805783,1.824527264,-2.313859463,3.267997503
5.716805783,1.623530149,-2.050648928,3.076571703
5.726805783,1.623530149,-2.050648928,3.076571703
5.736805783,0.230907381,-2.012363911,3.88056016
5.746805783,-0.118444718,-2.050648928,4.387838364
5.756805783,-0.137587309,-2.189432621,5.067399979
5.766805783,0.321834654,-2.538784742,5.83310318
5.776805783,0.321834654,-2.538784742,5.83310318
5.786805783,1.824527264,-3.519842148,6.804589272
5.796805783,1.824527264,-3.519842148,6.804589272
5.806805783,1.824527264,-3.519842148,6.804589272
5.816805783,3.863212109,-4.366901398,6.134599209
5.826805783,4.016352654,-4.017549038,6.211169243
5.836805783,4.332205296,-3.926621914,6.302096844
5.846805783,4.8346982,-4.194618225,6.531807423
5.856805783,4.8346982,-4.194618225,6.531807423
5.866805783,5.303691387,-6.486942291,7.594220638
5.876805783,5.365904808,-6.975078106,8.546564102
5.886805783,5.365904808,-6.975078106,8.546564102
5.896805783,5.136193752,-7.085147858,11.05902767
5.906805783,4.882554531,-7.042077065,12.30329609
5.916805783,4.911268711,-7.24307394,13.94955826
5.926805783,5.66740036,-7.72163868,14.45205021
5.936805783,6.859025955,-7.980063438,14.44247913
5.946805783,6.859025955,-7.980063438,14.44247913
5.956805783,8.20857811,-7.075576782,14.35633755
5.966805783,7.806583881,-6.659225464,14.3946228
5.976805783,7.275377274,-6.893722057,14.80140305
5.986805783,7.275377274,-6.893722057,14.80140305
5.996805783,7.275377274,-6.893722057,14.80140305
6.006805783,7.921439171,-9.602396965,16.64866257
6.016805783,8.486145973,-9.760323524,16.67259026
6.026805783,9.43848896,-9.477970123,16.81137276
6.036805783,10.31426239,-8.707481384,16.97408485
6.046805783,10.93639565,-8.434700012,16.47637939
6.056805783,11.17567825,-8.879764557,15.88295841
6.066805783,11.19003487,-9.190832138,15.04547024
6.076805783,10.9746809,-9.339186668,14.10748386
6.086805783,10.86461163,-9.391828537,13.30828094
6.096805783,10.54875851,-9.219545364,12.84885979
6.106805783,10.17069244,-9.176474571,12.54257774
6.116805783,10.17069244,-9.176474571,12.54257774
6.126805783,10.98425198,-9.722038269,12.77228928
6.136805783,10.98425198,-9.722038269,12.77228928
6.146805783,10.85025406,-9.578469276,11.99222851
6.156805783,11.61117172,-10.03789139,11.48016453
6.166805783,12.32423306,-10.38724327,10.59003448
6.176805783,13.36271763,-10.03789139,9.360123634
6.186805783,13.36271763,-10.03789139,9.360123634
6.196805783,15.19562054,-9.789037704,7.895716667
6.206805783,16.74617004,-9.506684303,7.498507977
6.216805783,18.88535309,-9.540184021,8.03928566
6.226805783,22.71865463,-10.05703354,8.910273552
6.236805783,26.64766884,-10.46859932,10.04925728
6.246805783,26.64766884,-10.46859932,10.04925728
6.256805783,35.28575897,-12.07657623,11.59023476
6.266805783,37.71208191,-14.64168167,12.43250847
6.276805783,40.75575256,-19.73839378,13.15992641
6.286805783,42.37329865,-28.4626255,12.51386452
6.296805783,41.24867249,-37.39263916,12.89671612
6.306805783,41.24867249,-37.39263916,12.89671612
6.316805783,41.24867249,-37.39263916,12.89671612
6.326805783,41.24867249,-37.39263916,12.89671612
6.336805783,41.24867249,-37.39263916,12.89671612
6.346805783,8.093722343,-77.10392761,27.31107903
6.356805783,10.02233791,-83.82775879,15.33260918
6.366805783,8.084151268,-89.81459808,3.248854876
6.376805783,-7.47398138,-81.7460022,-6.39900589
6.386805783,-16.5906353,-77.78348541,-8.456833839
6.396805783,-26.04228592,-67.36991882,-7.298707485
6.406805783,-34.98665619,-49.57210541,-4.762315273
6.416805783,-45.15615082,-26.38086891,-2.302493572
6.426805783,-43.99324036,-14.26840115,-0.780658364
6.436805783,-43.99324036,-14.26840115,-0.780658364
6.446805783,-43.99324036,-14.26840115,-0.780658364
6.456805783,-43.99324036,-14.26840115,-0.780658364
6.466805783,-13.84846115,-10.14317513,0.554536641
6.476805783,-10.54636574,-10.53081226,-0.574875653
6.486805783,-8.833105087,-10.63609695,-1.488933921
6.496805783,-8.833105087,-10.63609695,-1.488933921
6.506805783,-7.31126976,-7.467999458,7.584649563
6.516805783,-6.019145489,-7.57806921,11.2695961
6.526805783,-4.325026989,-7.91306448,13.70070457
6.536805783,-2.635694027,-7.841279984,14.66740417
6.546805783,-1.271785259,-7.113861561,14.51426411
6.556805783,-0.573081017,-6.056233883,13.56192017
6.566805783,-0.099302143,-4.491328239,10.29811001
6.576805783,-0.099302143,-4.491328239,10.29811001
6.586805783,-0.099302143,-4.491328239,10.29811001
6.596805783,1.594816327,-4.094119549,7.484150887
6.606805783,1.594816327,-4.094119549,7.484150887
6.616805783,1.91066885,-4.17069006,7.326224804
6.626805783,1.91066885,-4.17069006,7.326224804
6.636805783,1.91066885,-4.17069006,7.326224804
6.646805783,2.044667006,-0.921236694,8.283353806
6.656805783,3.09272337,-1.485942841,8.465208054
6.666805783,3.762713671,-2.548356056,8.235497475
6.676805783,3.724428415,-3.290131092,8.034500122
6.686805783,3.020938635,-3.007778168,8.139784813
6.696805783,1.771885157,-1.485942841,8.053643227
6.706805783,1.982453585,-1.648654819,7.977072716
6.716805783,2.61415863,-2.486142635,7.101299286
6.726805783,3.824927092,-3.59641242,6.536593437
6.736805783,4.916054249,-4.558327198,6.617949009
6.746805783,4.767699242,-4.945964336,7.259225845
6.756805783,4.767699242,-4.945964336,7.259225845
6.766805783,4.767699242,-4.945964336,7.259225845
6.776805783,4.767699242,-4.945964336,7.259225845
6.786805783,4.767699242,-4.945964336,7.259225845
6.796805783,-0.530010223,-8.43948555,11.0063858
6.806805783,-0.013160525,-8.965906143,11.41795158
6.816805783,0.441475779,-8.908478737,11.49452209
6.826805783,1.489532113,-8.975478172,10.64267731
6.836805783,1.585245013,-9.31525898,9.776474953
6.846805783,1.475175142,-9.889535904,9.029914856
6.856805783,1.077966571,-10.68395329,9.0921278
6.866805783,0.623330295,-11.02373409,10.47517967
6.876805783,1.092323542,-11.43529987,12.90628719
6.886805783,1.092323542,-11.43529987,12.90628719
6.896805783,1.092323542,-11.43529987,12.90628719
6.906805783,1.092323542,-11.43529987,12.90628719
6.916805783,9.821340561,-15.14417458,16.49073601
6.926805783,13.47757339,-15.97209072,16.3519516
6.936805783,16.95673752,-16.828722,15.35175228
6.946805783,18.23929024,-16.56072617,11.08295631
6.956805783,18.23929024,-16.56072617,11.08295631
6.966805783,18.23929024,-16.56072617,11.08295631
6.976805783,18.23929024,-16.56072617,11.08295631
6.986805783,16.48295784,-12.17707443,9.498908043
6.996805783,15.48754501,-14.43111324,11.50887871
7.006805783,15.48754501,-14.43111324,11.50887871
7.016805783,15.48754501,-14.43111324,11.50887871
7.026805783,15.48754501,-14.43111324,11.50887871
7.036805783,22.11566353,-16.93879128,12.48515034
7.046805783,25.06840706,-17.70449448,11.30309582
7.056805783,27.85365105,-18.41276932,10.79581738
7.066805783,29.66262627,-18.08734703,10.87717342
7.076805783,29.66262627,-18.08734703,10.87717342
7.086805783,36.20938873,-30.42473984,10.92981529
7.096805783,35.63989639,-36.47858047,11.22173977
7.106805783,31.03132057,-40.53202438,11.95872974
7.116805783,26.63809776,-45.65744781,15.12682629
7.126805783,23.94856453,-54.97031403,19.5391922
7.136805783,18.2345047,-62.78048706,21.24766731
7.146805783,8.495717049,-83.33483124,19.5391922
7.156805783,1.580459356,-83.6937561,18.45763588
7.166805783,-2.539981127,-81.31529236,15.35175228
7.176805783,-2.051845312,-81.28657532,11.84387398
7.186805783,-1.999203324,-79.52067566,7.345367432
7.196805783,-2.793620348,-75.41458893,5.71824789
7.206805783,-2.793620348,-75.41458893,5.71824789
7.216805783,-13.05882931,-71.84928894,-7.183851719
7.226805783,-23.11825562,-58.78926086,-1.297508121
7.236805783,-31.82334518,-41.0488739,5.306682587
7.246805783,-30.84228706,-32.20021439,6.091528416
7.256805783,-30.84228706,-32.20021439,6.091528416
7.266805783,-28.94238663,-34.09532928,-1.642074585
7.276805783,-28.94238663,-34.09532928,-1.642074585
7.286805783,-28.94238663,-34.09532928,-1.642074585
7.296805783,-38.0255394,-8.544769287,-4.532604218
7.306805783,-27.37269402,-11.11466122,3.708276987
7.316805783,-19.01695824,-12.78963661,11.82473087
7.326805783,-19.01695824,-12.78963661,11.82473087
7.336805783,-19.01695824,-12.78963661,11.82473087
7.346805783,5.69611454,-14.02433395,15.90210152
7.356805783,6.385247231,-10.55474091,11.27438164
7.366805783,5.763113499,-7.367500782,6.469594002
7.376805783,4.758127689,-4.931607246,2.741576433
7.386805783,3.738785267,-2.730210543,0.420538574
7.396805783,2.982653379,-0.892522871,-0.622732103
7.406805783,2.10209465,0.413958311,0.597607434
7.416805783,1.393819213,-0.155533478,2.243869543
7.426805783,1.714457393,-0.720239639,4.469194412
7.436805783,1.714457393,-0.720239639,4.469194412
7.446805783,1.259821177,-0.86380899,8.06799984
7.456805783,0.723828852,-0.658026218,8.809774399
7.466805783,-1.386640668,-1.763510346,8.857631683
7.476805783,-1.774278045,-1.959721804,8.469993591
7.486805783,-1.534995675,-1.572084427,8.27378273
7.496805783,-0.80757767,-1.371087432,7.996214867
7.506805783,0.202193514,-1.907079697,7.2065835
7.516805783,1.269392371,-2.854637384,7.053442955
7.526805783,2.394019127,-3.926621914,7.637291908
7.536805783,2.398804665,-3.649054527,8.565707207
7.546805783,1.738385677,-3.649054527,9.671191216
7.556805783,1.738385677,-3.649054527,9.671191216
7.566805783,1.427318692,-3.73998189,10.1210413
7.576805783,2.542374134,-4.615755081,11.1690979
7.586805783,2.891726255,-5.807380676,9.06341362
7.596805783,2.11645174,-5.764309883,9.235696793
7.596805783,2.891726255,-5.807380676,9.06341362
7.616805783,2.11645174,-5.764309883,9.235696793
7.626805783,1.058824062,-6.55394125,11.05424213
7.636805783,2.02073884,-7.73599577,12.46122169
7.646805783,3.006581545,-8.372486115,12.90150166
7.656805783,7.222734928,-10.08574772,12.93978691
7.666805783,8.821140289,-9.597611427,11.10209846
7.676805783,9.462417603,-9.49232769,11.19302654
7.686805783,9.13220787,-9.645467758,11.19781208
7.696805783,9.13220787,-9.645467758,11.19781208
7.706805783,8.299505234,-11.3443718,12.87757301
7.716805783,8.696713448,-12.08136177,14.74397469
7.726805783,8.696713448,-12.08136177,14.74397469
7.736805783,8.696713448,-12.08136177,14.74397469
7.746805783,11.98923779,-13.17248821,15.34218025
7.756805783,13.12822151,-13.58883953,14.55254936
7.766805783,14.01835155,-13.8233366,13.48056412
7.776805783,14.32941818,-13.10070419,12.74836063
7.786805783,17.60758591,-15.55095482,10.85324574
7.796805783,18.96670914,-16.97707748,9.70468998
7.806805783,20.51247215,-16.83350754,10.10668468
7.816805783,20.51247215,-16.83350754,10.10668468
7.826805783,23.58485603,-14.48375511,12.38943768
7.836805783,24.25963211,-14.27318668,12.08794212
7.846805783,23.95335197,-14.18225956,10.66181946
7.856805783,23.95335197,-14.18225956,10.66181946
7.866805783,23.95335197,-14.18225956,10.66181946
7.876805783,23.95335197,-14.18225956,10.66181946
7.886805783,30.31826019,-19.13540268,4.947759151
7.896805783,31.73002434,-19.04447556,5.636891842
7.906805783,33.93142319,-19.14975929,7.307082176
7.916805783,33.93142319,-19.14975929,7.307082176
7.926805783,39.94219208,-24.02633286,12.27936745
7.936805783,42.27758789,-29.34796906,13.54277802
7.946805783,43.25385666,-36.95235825,14.10269833
7.956805783,39.18606186,-41.62314987,14.54776382
7.966805783,37.25744629,-55.30052567,13.96391487
7.976805783,23.00579262,-91.41300201,11.88694477
7.986805783,11.33839035,-102.0897751,21.73101616
7.996805783,-0.61615181,-102.3912735,29.64647484
8.006805783,-8.746963501,-99.49595642,29.20140839
8.016805783,-11.17807102,-96.91171265,22.90828514
8.026805783,-11.43649578,-92.15956116,13.69591904
8.036805783,-15.68136311,-81.66464233,6.364310265
8.046805783,-15.68136311,-81.66464233,6.364310265
8.056805783,-15.68136311,-81.66464233,6.364310265
8.066805783,-15.68136311,-81.66464233,6.364310265
8.076805783,-21.18964005,-39.41218185,-3.580260992
8.086805783,-21.91705894,-31.96093178,-2.857628345
8.096805783,-23.45325089,-24.76810646,-2.111067772
8.106805783,-24.04188538,-15.71366596,-1.436291814
8.116805783,-24.04188538,-15.71366596,-1.436291814
8.126805783,-20.4813652,-12.28235817,-0.704088092
8.136805783,-20.4813652,-12.28235817,-0.704088092
8.146805783,-20.7062912,-7.826922894,-3.55154705
8.156805783,-18.99303055,-6.850651264,-3.790829182
8.166805783,-15.82971859,-7.003791809,-1.498505235
8.176805783,-15.82971859,-7.003791809,-1.498505235
8.186805783,-15.82971859,-7.003791809,-1.498505235
8.196805783,-5.344369411,-8.257631302,11.25523949
8.206805783,-3.119044304,-8.673981667,12.17408371
8.216805783,-1.47756803,-8.659625053,11.78166008
8.226805783,-0.922433138,-7.846065521,10.43210888
8.236805783,-2.08534503,-4.687539577,6.584449768
8.246805783,-2.673979282,-3.730410576,4.670191765
8.256805783,-3.071187973,-3.366701365,3.157927752
8.266805783,-3.253042459,-3.428914785,2.253440619
8.276805783,-2.951546669,-3.663411379,2.181656122
8.286805783,-2.161915302,-4.051048756,2.980858803
8.296805783,-1.453639746,-4.429114819,4.177269936
8.306805783,-1.008574724,-4.132404804,7.120441914
8.316805783,-0.989432156,-3.945764542,7.862216949
8.326805783,-1.137787223,-3.979264021,8.091927528
8.336805783,-1.439282775,-4.55354166,7.503293514
8.346805783,-1.640279889,-5.391029358,6.938587666
8.356805783,-1.917847395,-5.864808083,6.646663189
8.366805783,-1.917847395,-5.864808083,6.646663189
8.376805783,-1.917847395,-5.864808083,6.646663189
8.386805783,-1.037288666,-7.855636597,9.556335449
8.396805783,0.245264322,-9.535398483,10.20239735
8.406805783,1.312463164,-10.93280697,10.25982571
8.416805783,2.417947292,-11.61236858,9.953543663
8.426805783,2.384447813,-11.93300629,9.972686768
8.436805783,2.633301258,-12.0095768,12.45643616
8.446805783,2.633301258,-12.0095768,12.45643616
8.456805783,5.547759533,-12.21535969,15.09811306
8.466805783,7.241877556,-12.79920864,15.36132336
8.476805783,8.136793137,-13.3782711,14.3946228
8.486805783,8.553144455,-13.52184105,13.41356564
8.496805783,8.553144455,-13.52184105,13.41356564
8.506805783,8.553144455,-13.52184105,13.41356564
8.516805783,7.15573597,-13.69890976,14.00220013
8.526805783,6.949953556,-14.42154217,15.21775341
8.536805783,7.572087288,-14.55075455,16.40459442
8.546805783,8.54357338,-14.67039585,16.53380585
8.556805783,11.20439243,-15.01017666,14.09791279
8.566805783,12.81236839,-14.44546986,12.27936745
8.576805783,14.10927868,-14.17268848,10.98724365
8.586805783,14.10927868,-14.17268848,10.98724365
8.596805783,13.9800663,-14.80917931,8.867202759
8.606805783,16.63609886,-16.07737541,8.852845192
8.616805783,19.90469551,-17.02493286,9.135198593
8.626805783,19.90469551,-17.02493286,9.135198593
8.636805783,17.31566048,-14.50289822,11.71944714
8.646805783,17.07159233,-15.16810226,10.91545868
8.656805783,16.06182289,-14.3689003,10.17368412
8.666805783,15.64068508,-13.8233366,8.924630165
8.676805783,16.66002846,-13.84726429,8.34556675
8.686805783,16.66002846,-13.84726429,8.34556675
8.696805783,16.66002846,-13.84726429,8.34556675
8.706805783,24.91526604,-12.2919302,9.340981483
8.716805783,24.91526604,-12.2919302,9.340981483
8.726805783,31.37588692,-13.72762394,8.565707207
8.736805783,34.16591644,-14.01954746,8.498707771
8.746805783,37.30051422,-14.78046513,8.575278282
8.756805783,37.30051422,-14.78046513,8.575278282
8.766805783,37.30051422,-14.78046513,8.575278282
8.776805783,37.30051422,-14.78046513,8.575278282
8.786805783,37.30051422,-14.78046513,8.575278282
8.796805783,36.09453201,-44.65246201,25.9519558
8.806805783,35.16611862,-60.72744751,28.52184677
8.816805783,17.85643959,-93.31290436,22.12343979
8.826805783,6.940382004,-99.72088623,18.25185204
8.836805783,6.940382004,-99.72088623,18.25185204
8.846805783,-4.310669899,-89.55617523,12.15972614
8.856805783,-2.654836655,-87.05328369,9.049057007
8.866805783,-4.200600147,-84.63174438,4.895116806
8.876805783,-7.96690321,-82.40641785,-1.704287887
8.886805783,-7.96690321,-82.40641785,-1.704287887
8.896805783,-7.96690321,-82.40641785,-1.704287887
8.906805783,-29.03809929,-36.37329865,-1.278365493
8.916805783,-29.03809929,-36.37329865,-1.278365493
8.926805783,-37.35076523,-6.697510719,3.492922783
8.936805783,-30.11487007,-9.224330902,3.775275946
8.946805783,-30.11487007,-9.224330902,3.775275946
8.956805783,-8.689535141,-10.11446095,10.08754253
8.966805783,-8.689535141,-10.11446095,10.08754253
8.976805783,0.489332229,-11.76072311,14.54776382
8.986805783,2.910868645,-12.14357471,14.96890068
8.996805783,4.356133461,-11.6267252,14.30369568
9.006805783,4.198207378,-10.17188931,12.76750374
9.016805783,1.527817249,-6.520441532,8.603992462
9.026805783,0.513260484,-5.702096462,7.086942673
9.036805783,-0.386440843,-4.907679081,6.431309223
9.046805783,-1.056431174,-3.888336897,6.455237389
9.056805783,-1.219143152,-3.031706333,7.158727169
9.066805783,-0.802792013,-2.744567633,8.149355888
9.076805783,-0.802792013,-2.744567633,8.149355888
9.086805783,-0.802792013,-2.744567633,8.149355888
9.096805783,-0.802792013,-2.744567633,8.149355888
9.106805783,4.619344234,-5.615954876,11.22173977
9.116805783,5.337191105,-5.577669621,9.943972588
9.126805783,5.581258774,-4.84546566,8.044071198
9.136805783,5.581258774,-4.84546566,8.044071198
9.146805783,5.581258774,-4.84546566,8.044071198
9.156805783,3.939782381,-1.99800694,5.196612358
9.166805783,3.705285788,-1.897508383,5.84746027
9.176805783,3.844069481,-1.897508383,6.383452415
9.186805783,4.403990269,-2.012363911,6.598806858
9.196805783,5.050052166,-2.031506538,6.809374809
9.206805783,4.901697159,-1.232303619,7.072585583
9.216805783,4.188635826,-0.973878801,7.776075363
9.226805783,3.824927092,-1.275374413,8.388637543
9.236805783,3.963710785,-1.859223247,8.809774399
9.246805783,4.231706619,-2.170290232,9.230911255
9.256805783,4.782055855,-1.792224169,10.93938732
9.266805783,4.782055855,-1.792224169,10.93938732
9.276805783,4.782055855,-1.792224169,10.93938732
9.286805783,4.782055855,-1.792224169,10.93938732
9.296805783,7.371089935,-0.705882668,9.896116257
9.306805783,8.098507881,-1.222732425,7.436294556
9.316805783,8.902496338,-1.452443361,5.857031822
9.326805783,9.95055294,-1.624726534,5.522036552
9.336805783,10.85025406,-1.653440475,8.599205971
9.346805783,10.46740246,-1.304088354,10.65703392
9.356805783,9.998409271,-1.232303619,12.38465214
9.366805783,9.998409271,-1.232303619,12.38465214
9.376805783,9.615557671,-3.381058455,12.04008579
9.386805783,9.77348423,-4.649254322,11.8343029
9.396805783,9.77348423,-4.649254322,11.8343029
9.406805783,9.77348423,-4.649254322,11.8343029
9.416805783,9.77348423,-4.649254322,11.8343029
9.426805783,11.68774223,-11.69372463,6.349953175
9.436805783,13.3340044,-13.80897903,2.755933523
9.446805783,15.38226032,-15.3355999,-0.254237413
9.456805783,16.52124405,-15.50788403,-3.240479946
9.466805783,16.52124405,-15.50788403,-3.240479946
9.476805783,21.62752724,-17.72363663,-13.52483177
9.486805783,21.20639038,-17.60878181,-15.94636822
9.496805783,19.34477425,-16.07737541,-15.75972843
9.506805783,17.6315136,-15.52702618,-14.77388477
9.516805783,16.68874168,-15.94337749,-13.15155125
9.526805783,16.68874168,-15.94337749,-13.15155125
9.536805783,17.79422569,-18.01077652,-9.265607834
9.546805783,17.79422569,-18.01077652,-9.265607834
9.556805783,17.55494308,-17.49871254,-13.87418365
9.566805783,17.01895142,-16.05344772,-17.25763512
9.576805783,17.73679733,-16.23530197,-22.00499535
9.586805783,22.04387856,-19.04926109,-31.85385323
9.596805783,25.91068077,-23.00699043,-31.72942734
9.606805783,25.91068077,-23.00699043,-31.72942734
9.616805783,30.16033363,-30.12803078,-25.00559425
9.626805783,30.41397285,-31.69772148,-21.41636086
9.636805783,30.60539818,-35.22952652,-19.15753555
9.646805783,31.7874527,-41.17329788,-17.33899117
9.656805783,36.19503021,-60.1244545,-6.020939827
9.666805783,40.29154587,-69.96852875,6.795018196
9.676805783,45.32604218,-78.13762665,19.86461449
9.686805783,46.16831589,-82.77012634,24.98047066
9.696805783,44.44069672,-85.77072906,24.58804703
9.706805783,43.823349,-92.49456024,20.34796524
9.716805783,38.5639267,-112.3549881,13.50449276
9.726805783,38.5639267,-112.3549881,13.50449276
9.736805783,38.5639267,-112.3549881,13.50449276
9.746805783,-3.516252756,-92.17391968,32.89113998
9.746805783,38.5639267,-112.3549881,13.50449276
9.766805783,-23.30968094,-51.50072098,39.72025681
9.776805783,-28.07139969,-36.3445816,37.83950043
9.786805783,-19.22274017,-24.05504608,35.62374496
9.796805783,-14.90608883,-21.20280075,34.35554886
9.806805783,-13.93938828,-16.35972786,31.05823898
9.816805783,-13.23111248,-11.66022491,26.98565483
9.826805783,-11.31685448,-8.884550095,22.72643089
9.836805783,-8.507680893,-7.879564762,19.02234268
9.846805783,-0.802792013,-7.889136314,14.51904964
9.856805783,3.102294445,-8.391629219,13.11207008
9.866805783,6.471388817,-8.760123253,12.06401348
9.876805783,9.127422333,-8.98026371,10.98245811
9.886805783,10.63490009,-8.726624489,9.5754776
9.896805783,10.94596672,-8.008777618,7.795217991
9.906805783,10.21854877,-6.88893652,5.746961594
9.916805783,10.21854877,-6.88893652,5.746961594
9.926805783,6.5288167,-3.64426899,0.521037102
9.936805783,5.404190063,-2.65364027,-0.402592421
9.946805783,4.447061062,-1.404586911,-0.838086128
9.956805783,3.446861029,-0.165104762,-0.948155999
9.966805783,2.772084951,0.73459655,-0.421734989
9.976805783,3.360719442,0.710668325,1.846660852
9.986805783,4.375276089,0.098105729,3.234498024
9.996805783,5.65304327,-0.691525757,4.517050743
10.00680578,7.251449108,-1.299302697,5.483751297
10.01680578,8.452646255,-1.122233868,5.914459229
10.02680578,8.782855988,-0.404387027,5.909673691
10.03680578,8.447860718,0.260817677,5.368896008
10.04680578,8.447860718,0.260817677,5.368896008
10.05680578,7.241877556,0.02632105,2.736790895
10.06680578,6.533602238,0.189032987,2.133799553
10.07680578,5.973681927,0.514456868,2.315654039
10.08680578,6.169893265,0.696311414,3.64127779
10.09680578,7.016952515,0.533599436,5.277968407
10.10680578,9.912267685,-1.036092162,6.986443996
10.11680578,12.03709412,-1.868794441,7.498507977
10.12680578,14.04227924,-2.275574446,7.704290867
10.13680578,14.04227924,-2.275574446,7.704290867
10.14680578,16.01396561,-2.155933142,7.067800045
10.15680578,15.70289898,-2.246860504,7.331010342
10.16680578,15.70289898,-2.246860504,7.331010342
10.17680578,15.70289898,-2.246860504,7.331010342
10.18680578,15.70289898,-2.246860504,7.331010342
10.19680578,15.70289898,-2.246860504,7.331010342
10.20680578,22.42673111,-4.797609329,-4.221537113
10.21680578,22.12044907,-4.376472473,-5.197809219
10.22680578,20.77089691,-3.787838221,-4.135395527
10.23680578,17.73679733,-3.562912941,2.449652195
10.24680578,17.73679733,-3.562912941,2.449652195
10.25680578,15.43490219,-5.367101192,6.747161865
10.26680578,14.99940872,-6.697510719,7.053442955
10.27680578,15.06640816,-8.190631866,6.603592396
10.28680578,15.32004738,-9.64068222,5.86181736
10.29680578,15.32004738,-9.64068222,5.86181736
10.30680578,15.32004738,-9.64068222,5.86181736
10.31680578,15.32004738,-9.64068222,5.86181736
10.32680578,22.96750832,-16.33580017,-8.428119659
10.33680578,22.96750832,-16.33580017,-8.428119659
10.34680578,22.96750832,-16.33580017,-8.428119659
10.35680578,22.64208412,-16.59901047,-13.71147156
10.36680578,22.64208412,-16.59901047,-13.71147156
10.37680578,18.66521263,-15.06760406,-17.2432785
10.38680578,20.01476479,-15.91466331,-19.75095558
10.39680578,20.01476479,-15.91466331,-19.75095558
10.40680578,23.49871445,-17.9198494,-23.49811745
10.41680578,24.65684128,-18.59941101,-23.79004097
10.42680578,24.65684128,-18.59941101,-23.79004097
10.43680578,24.65684128,-18.59941101,-23.79004097
10.44680578,32.19901657,-31.26701355,-25.19223595
10.45680578,34.75455093,-37.8999176,-25.68994141
10.46680578,38.06621933,-46.12165833,-24.35953331
10.47680578,41.60280991,-56.17629623,-19.86102676
10.48680578,45.67060852,-67.317276,-11.66321564
10.49680578,50.55675507,-91.41300201,8.929415703
10.50680578,49.40341187,-104.6979523,16.9549427
10.51680578,42.65565109,-111.0724335,24.03291321
10.52680578,42.65565109,-111.0724335,24.03291321
10.53680578,25.41775894,-116.9252777,31.29752159
10.54680578,15.47797298,-109.2395325,32.05844116
10.55680578,15.47797298,-109.2395325,32.05844116
10.56680578,15.47797298,-109.2395325,32.05844116
10.57680578,15.47797298,-109.2395325,32.05844116
10.58680578,-28.16232681,-56.00401306,46.96572495
10.59680578,-39.63830185,-38.11527252,49.38726044
10.60680578,-49.61158752,-21.12623024,51.22973633
10.61680578,-45.72564316,-6.87457943,43.76891327
10.62680578,-31.15335464,-10.34417248,37.27000809
10.63680578,-17.26062584,-13.31127262,30.9338131
10.64680578,-17.26062584,-13.31127262,30.9338131
10.65680578,5.337191105,-17.80020714,18.27578163
10.66680578,13.87478256,-19.41775513,13.1838541
10.67680578,18.05265045,-18.4606266,9.221340179
10.68680578,18.05265045,-18.4606266,9.221340179
10.69680578,18.05265045,-18.4606266,9.221340179
10.70680578,10.31904793,-4.189832687,-0.613160789
10.71680578,8.534002304,-2.112862349,-1.694716692
10.72680578,6.949953556,-0.055034921,-2.379063845
10.73680578,5.643472195,1.500299811,-2.580060959
10.74680578,5.643472195,1.500299811,-2.580060959
10.75680578,3.614358664,1.351944804,0.099900343
10.76680578,3.231507063,0.820738196,1.272383451
10.77680578,2.657229662,1.117448211,2.267797709
10.78680578,1.829312921,2.14157629,3.473780155
10.79680578,1.580459356,3.012563705,5.158327579
10.80680578,2.604587555,2.98863554,7.326224804
10.81680578,2.604587555,2.98863554,7.326224804
10.82680578,2.604587555,2.98863554,7.326224804
10.83680578,7.892725468,0.624526739,11.59980583
10.84680578,8.256434441,0.413958311,9.963115692
10.85680578,8.629714966,0.318245411,7.852645874
10.86680578,9.10349369,0.088534437,5.617749214
10.87680578,8.888139725,-0.514456868,1.746162295
10.88680578,8.830712318,-0.610169768,1.549950838
10.89680578,8.974281311,-0.949950576,2.679363251
10.90680578,9.56770134,-1.29451704,4.832903385
10.91680578,10.40040398,-1.418943882,7.632505894
10.92680578,11.54895878,-1.581655741,10.01575756
10.93680578,13.29571915,-2.404786825,11.13559818
10.94680578,17.54537201,-4.17069006,10.39382362
10.95680578,19.27298927,-4.625326157,9.451051712
10.96680578,19.27298927,-4.625326157,9.451051712
10.97680578,19.31606102,-5.170889854,7.311867714
10.98680578,19.05763626,-6.496513367,6.799803734
10.99680578,17.79422569,-6.88893652,6.756732941
11.00680578,15.47318745,-7.08036232,7.134799004
11.01680578,16.25803375,-8.453842163,6.426523209
11.02680578,16.25803375,-8.453842163,6.426523209
11.03680578,17.9712944,-10.84187984,3.957130432
11.04680578,18.22971916,-11.38744259,2.464009047
11.05680578,18.26321793,-11.86122227,1.593021631
11.06680578,18.00479317,-12.37328625,1.377667665
11.07680578,16.52602959,-12.72742367,0.339182615
11.08680578,16.52602959,-12.72742367,0.339182615
11.09680578,15.81775379,-13.17248821,-0.211166605
11.10680578,15.99003696,-13.49312687,-1.091725349
11.11680578,16.68395615,-14.17747402,-1.962712765
11.12680578,17.62194252,-14.72782326,-2.21156621
11.13680578,19.87598038,-14.43111324,-2.862414122
11.14680578,21.18246269,-13.46919823,-4.211966038
11.15680578,22.96272278,-12.69870949,-7.107281685
11.16680578,24.61855507,-11.66979599,-11.24207878
11.17680578,26.40838623,-11.66022491,-16.28136253
11.18680578,27.74836731,-12.15793228,-20.55494499
11.19680578,27.74836731,-12.15793228,-20.55494499
11.20680578,23.80499649,-10.88495064,-15.82194138
11.21680578,23.80499649,-10.88495064,-15.82194138
11.22680578,23.80499649,-10.88495064,-15.82194138
11.23680578,27.5090847,-10.16231823,-9.600603104
11.24680578,30.35654449,-11.25823021,-10.04566765
11.25680578,35.06562042,-16.63729668,-12.02692509
11.26680578,41.82295227,-28.21855736,-9.29432106
11.27680578,44.78047943,-35.50230789,-4.379463673
11.28680578,46.63252258,-43.65226364,2.353939295
11.29680578,46.82873535,-50.62016296,9.80997467
11.30680578,45.43132782,-58.27241135,14.19362545
11.31680578,41.63152313,-66.034729,14.98804283
11.32680578,41.63152313,-66.034729,14.98804283
11.33680578,41.63152313,-66.034729,14.98804283
11.34680578,41.63152313,-66.034729,14.98804283
11.35680578,21.11546326,-86.31629181,26.64587402
11.36680578,15.30568981,-88.17790985,27.93321419
11.37680578,9.739984512,-87.25428009,25.21975327
11.38680578,-0.123230368,-83.6554718,26.98086929
11.39680578,-0.123230368,-83.6554718,26.98086929
11.40680578,-43.12703705,-42.84827423,47.35336304
11.41680578,-43.12703705,-42.84827423,47.35336304
11.42680578,-57.02455139,-14.59861088,43.01756668
11.43680578,-50.97071075,-10.91366386,38.54298782
11.44680578,-36.14956665,-16.43151283,34.73361588
11.45680578,-36.14956665,-16.43151283,34.73361588
11.46680578,8.103293419,-27.7974205,22.46800613
11.47680578,18.73221207,-29.86003304,16.01217079
11.48680578,23.14457703,-27.72084999,9.532406807
11.49680578,23.33600235,-23.16012955,3.650849104
11.50680578,21.74716949,-19.02054787,-1.216152072
11.51680578,18.97628021,-14.70868111,-4.992026329
11.52680578,18.97628021,-14.70868111,-4.992026329
11.53680578,8.462217331,-3.873979807,-8.514261246
11.54680578,8.462217331,-3.873979807,-8.514261246
11.55680578,8.462217331,-3.873979807,-8.514261246
11.56680578,3.810570002,-2.026720762,0.841675341
11.57680578,5.160121918,-2.529213428,3.052643538
11.58680578,5.160121918,-2.529213428,3.052643538
11.59680578,5.160121918,-2.529213428,3.052643538
11.60680578,13.34357548,-5.726024628,-2.1302104
11.61680578,13.34357548,-5.726024628,-2.1302104
11.62680578,13.40100288,-4.467400074,-3.068196774
11.63680578,12.24287701,-3.763910055,-1.4267205
11.64680578,11.20439243,-3.314059258,1.152742267
11.65680578,11.20439243,-3.314059258,1.152742267
11.66680578,12.05623722,-2.744567633,4.746761799
11.67680578,12.05623722,-2.744567633,4.746761799
11.68680578,13.76949787,-2.816352367,1.396810174
11.69680578,14.04706573,-2.682354212,0.253040999
11.70680578,13.73599815,-2.581855536,-0.402592421
11.71680578,13.73599815,-2.581855536,-0.402592421
11.72680578,13.73599815,-2.581855536,-0.402592421
11.73680578,12.4055891,-4.500899315,7.852645874
11.74680578,13.01336575,-5.424529076,11.19781208
11.75680578,13.7599268,-6.463014126,13.15992641
11.76680578,14.9084816,-7.57806921,13.49013615
11.77680578,14.9084816,-7.57806921,13.49013615
11.78680578,14.9084816,-7.57806921,13.49013615
11.79680578,19.40698814,-8.946763992,3.507279873
11.80680578,19.57927132,-7.846065521,0.784247637
11.81680578,19.34477425,-6.960721016,-1.244866014
11.82680578,19.828125,-7.654639721,-2.73798728
11.83680578,20.71346855,-9.123832703,-3.608974695
11.84680578,21.28296089,-9.616754532,-3.762115479
11.85680578,20.30190277,-8.58784008,-1.704287887
11.86680578,19.43570137,-8.228917122,0.224327117
11.87680578,19.30170441,-8.654839516,0.927816987
11.88680578,18.80399704,-8.903693199,0.430109859
11.89680578,17.8707962,-8.760123253,-0.469591439
11.90680578,16.12882042,-9.008976936,-3.139981508
11.91680578,16.77966881,-9.501898766,-6.5760746
11.92680578,18.97628021,-9.387042999,-12.30927753
11.93680578,18.22971916,-7.659425259,-14.00818157
11.94680578,18.22971916,-7.659425259,-14.00818157
11.95680578,15.1286211,-8.539983749,1.636092424
11.96680578,16.85145378,-11.2438736,7.134799004
11.97680578,16.85145378,-11.2438736,7.134799004
11.98680578,16.85145378,-11.2438736,7.134799004
11.99680578,17.50708771,-10.10010433,-9.552745819
12.00680578,17.96650887,-9.296115875,-14.59203053
12.01680578,16.84188271,-7.362715244,-18.11426544
12.02680578,18.38764572,-8.358129501,-19.73181343
12.03680578,24.96312141,-12.65563869,-19.1383934
12.04680578,28.68156815,-15.13938904,-17.07578087
12.05680578,31.88316536,-20.0542469,-16.87957001
12.06680578,32.97429276,-24.91646194,-16.41057587
12.07680578,32.20858765,-27.06043053,-13.81197071
12.08680578,32.51965714,-29.42453957,-10.86879826
12.09680578,34.55355453,-33.87040329,-8.150551796
12.10680578,34.55355453,-33.87040329,-8.150551796
12.11680578,34.55355453,-33.87040329,-8.150551796
12.12680578,34.55355453,-33.87040329,-8.150551796
12.13680578,41.81816483,-81.90871429,2.071586132
12.14680578,38.6644249,-88.86225128,11.30788136
12.15680578,37.61158371,-96.82078552,17.35693741
12.16680578,37.61158371,-96.82078552,17.35693741
12.17680578,37.61158371,-96.82078552,17.35693741
12.18680578,18.50250053,-122.983902,18.53420639
12.19680578,8.333004951,-123.9697495,29.77568626
12.20680578,-9.641879082,-97.64391327,41.93122482
12.21680578,-25.66900444,-65.51309204,50.54538727
12.22680578,-25.66900444,-65.51309204,50.54538727
12.22680578,-43.51467514,-29.62553787,46.53023148
12.24680578,-39.73880386,-12.01914787,31.14438057
12.25680578,-33.66103363,-8.889336586,25.82752991
12.26680578,-33.66103363,-8.889336586,25.82752991
12.27680578,-17.1936264,-8.200202942,19.48176384
12.28680578,-7.019345284,-10.05703354,17.92164421
12.29680578,-7.019345284,-10.05703354,17.92164421
12.30680578,22.97229385,-18.6855526,17.14158249
12.31680578,28.34178734,-18.42712784,15.50489235
12.32680578,27.93979454,-15.4552412,13.246068
12.33680578,24.45105743,-12.36371422,9.690333366
12.34680578,18.84706688,-9.066405296,5.895316601
12.35680578,18.84706688,-9.066405296,5.895316601
12.36680578,18.84706688,-9.066405296,5.895316601
12.37680578,6.739385128,-1.37587297,-2.6087749
12.38680578,5.586044312,-0.562313318,-3.77647233
12.39680578,4.935196877,-0.002392823,-4.484747887
12.40680578,4.872983456,0.428315252,-4.274179459
12.41680578,5.47597456,0.514456868,-3.144767046
12.42680578,5.47597456,0.514456868,-3.144767046
12.43680578,8.323433876,-0.222532511,2.397010088
12.44680578,9.199206352,-0.528813779,3.97627306
12.45680578,9.735198975,-0.361316234,5.0291152
12.46680578,9.993623734,0.150747821,5.569892883
12.47680578,10.06062317,0.35174492,5.52682209
12.48680578,10.0462656,0.035892341,3.928416491
12.49680578,10.0462656,0.035892341,3.928416491
12.50680578,10.0462656,0.035892341,3.928416491
12.51680578,9.242277145,0.758524776,2.669791937
12.52680578,8.610571861,1.064806104,2.79421854
12.53680578,7.978867054,1.39022994,3.598206997
12.54680578,7.978867054,1.39022994,3.598206997
12.55680578,7.978867054,1.39022994,3.598206997
12.56680578,7.978867054,1.39022994,3.598206997
12.57680578,7.978867054,1.39022994,3.598206997
12.58680578,11.55852985,-1.983649969,4.37348175
12.59680578,12.52523041,-2.323430777,3.172284603
12.60680578,13.23350525,-2.342573404,2.176870346
12.61680578,13.23350525,-2.342573404,2.176870346
12.62680578,13.23350525,-2.342573404,2.176870346
12.63680578,10.75932693,-1.39022994,3.382853031
12.64680578,9.864411354,-1.811366796,4.617549419
12.65680578,9.605986595,-2.376072884,6.278168201
12.66680578,9.735198975,-3.156133175,7.871788502
12.67680578,10.09890842,-4.137190342,9.053842545
12.68680578,11.2570343,-6.037091732,10.83888817
12.69680578,11.88395405,-7.003791809,10.6235342
12.70680578,11.88395405,-7.003791809,10.6235342
12.71680578,11.88395405,-7.003791809,10.6235342
12.72680578,13.31007576,-11.00937653,6.976872444
12.73680578,14.15234947,-12.43071365,4.339982033
12.74680578,14.15234947,-12.43071365,4.339982033
12.75680578,14.15234947,-12.43071365,4.339982033
12.76680578,14.15234947,-12.43071365,4.339982033
12.77680578,22.43151665,-16.02473259,-10.19402313
12.78680578,22.44587326,-15.47438431,-9.892526627
12.79680578,21.63709831,-15.32124329,-8.413763046
12.80680578,21.63709831,-15.32124329,-8.413763046
12.81680578,15.84646797,-16.44586945,-10.53380394
12.82680578,15.87996769,-16.25922966,-10.65344429
12.83680578,15.87996769,-16.25922966,-10.65344429
12.84680578,19.58884239,-18.00599098,-9.55753231
12.85680578,23.49392891,-19.47039795,-9.710672379
12.86680578,27.22194672,-20.50409698,-10.87837029
12.87680578,27.22194672,-20.50409698,-10.87837029
12.88680578,34.21377563,-23.3419857,-22.90469742
12.89680578,34.28077316,-25.26102829,-26.81935501
12.90680578,33.658638,-28.34298515,-28.29811859
12.91680578,33.19921875,-32.28635406,-27.41277504
12.92680578,33.98406219,-37.85206223,-23.9575386
12.93680578,37.40579987,-55.37231064,-14.26182079
12.94680578,38.41556931,-67.03492737,-8.236693382
12.95680578,39.47319794,-80.60223389,-0.823729217
12.96680578,37.2095871,-92.37013245,8.694919586
12.97680578,34.50091171,-99.366745,21.57309151
12.98680578,37.91307831,-105.3775177,31.55594635
12.99680578,38.70749664,-112.4554825,26.38266373
13.00680578,25.05404854,-129.4158173,13.41835117
13.01680578,14.34377575,-127.6451263,17.7206459
13.02680578,6.926024914,-121.9119186,24.75554466
13.03680578,6.926024914,-121.9119186,24.75554466
13.04680578,-5.693721294,-92.84869385,30.13939667
13.05680578,-9.943374634,-79.30532074,34.16412354
13.06680578,-9.943374634,-79.30532074,34.16412354
13.07680578,-9.943374634,-79.30532074,34.16412354
13.08680578,-9.943374634,-79.30532074,34.16412354
13.09680578,-35.5274353,-19.4273262,35.73381424
13.10680578,-38.81038666,-10.39681435,32.85285568
13.11680578,-37.17369461,-5.027320385,28.92862701
13.12680578,-27.87997246,-5.673382282,24.63590431
13.13680578,-4.980660439,-11.73679543,18.43370819
13.14680578,3.202793121,-13.0576334,16.76830292
13.15680578,10.47697353,-14.01476192,15.46182156
13.16680578,10.47697353,-14.01476192,15.46182156
13.17680578,20.67518425,-14.01954746,12.97328663
13.18680578,21.86680984,-12.15314579,10.90110207
13.19680578,21.86680984,-12.15314579,10.90110207
13.20680578,21.86680984,-12.15314579,10.90110207
13.21680578,7.318448067,-3.601198196,4.258625984
13.22680578,3.882354736,-1.859223247,3.794418573
13.23680578,1.058824062,-0.035892341,3.803989887
13.24680578,-0.831505895,1.107876897,3.97627306
13.25680578,-2.50169611,1.811366796,4.957330227
13.26680578,-1.917847395,1.280160069,5.665606022
13.27680578,-1.917847395,1.280160069,5.665606022
13.28680578,0.656829834,-0.10767702,7.09172821
13.29680578,1.992024899,-0.782453001,7.450651646
13.30680578,3.1405797,-1.753939033,7.565506935
13.31680578,4.126422882,-2.825923443,7.522436142
13.32680578,5.504688263,-4.098905087,7.168298244
13.33680578,5.504688263,-4.098905087,7.168298244
13.34680578,6.078966141,-3.921836376,5.340181828
13.35680578,5.992824078,-3.481556892,4.201198578
13.36680578,5.777470112,-3.055634499,2.813361168
13.37680578,5.777470112,-3.055634499,2.813361168
13.38680578,6.064609051,-2.146361828,-1.412363529
13.39680578,6.5288167,-1.318445325,-2.364706993
13.40680578,6.954739094,-0.6867401,-2.479562521
13.41680578,7.490731239,-0.614955425,-1.675574064
13.42680578,8.055437088,-0.835095108,-0.244666114
13.43680578,8.768498421,-1.256231904,1.368096352
13.44680578,9.644271851,-1.921436548,2.52143693
13.45680578,9.644271851,-1.921436548,2.52143693
13.46680578,9.644271851,-1.921436548,2.52143693
13.47680578,9.644271851,-1.921436548,2.52143693
13.48680578,10.48176003,-2.299502611,7.153941631
13.49680578,10.12283611,-3.046063185,9.183054924
13.50680578,10.12283611,-4.046263218,11.09731293
13.51680578,13.10907841,-6.381658077,14.35155201
13.52680578,14.18106365,-6.582654953,14.76790333
13.53680578,15.20040607,-6.23330307,14.720047
13.54680578,16.03310776,-5.984449387,13.74856091
13.55680578,16.41596031,-6.367300987,12.20279694
13.56680578,16.31067467,-6.893722057,10.74317551
13.57680578,16.31067467,-6.893722057,10.74317551
13.58680578,16.31067467,-6.893722057,10.74317551
13.59680578,16.31067467,-6.893722057,10.74317551
13.60680578,16.31067467,-6.893722057,10.74317551
13.61680578,16.31067467,-6.893722057,10.74317551
13.62680578,19.39741707,-12.50728416,6.115456581
13.63680578,19.27777481,-12.65563869,5.775675774
13.64680578,18.55514336,-13.59362507,5.660820007
13.65680578,18.55514336,-13.59362507,5.660820007
13.66680578,19.67498398,-15.25903034,0.664606512
13.67680578,20.57468605,-15.9003067,-2.379063845
13.68680578,21.12981987,-15.72323799,-4.752744198
13.69680578,21.34038925,-14.64646721,-6.332006931
13.70680578,20.98146629,-13.45962715,-7.250850677
13.71680578,20.45025826,-13.16770267,-9.610174179
13.72680578,20.81396866,-13.2586298,-10.60558796
13.73680578,21.66581345,-14.22054482,-11.14636612
13.74680578,22.87658119,-15.84287834,-11.66321564
13.75680578,24.38884544,-16.82393646,-11.40479088
13.76680578,26.54717064,-17.69013786,-10.9501543
13.77680578,26.54717064,-17.69013786,-10.9501543
13.78680578,26.54717064,-17.69013786,-10.9501543
13.79680578,26.54717064,-17.69013786,-10.9501543
13.80680578,26.54717064,-17.69013786,-10.9501543
13.81680578,43.26343155,-44.16911316,-10.00738239
13.82680578,41.64109421,-54.19025421,-8.255836487
13.83680578,41.64109421,-54.19025421,-8.255836487
13.84680578,27.23630333,-83.78468323,9.465408325
13.85680578,22.27359009,-90.57551575,21.02274132
13.86680578,18.29193306,-93.44211578,31.04866791
13.87680578,16.20539093,-93.88239288,33.70470047
13.88680578,15.71725559,-93.70053864,27.7848587
13.89680578,15.44447422,-95.39944458,19.46740723
13.90680578,6.739385128,-101.7069244,2.913859844
13.91680578,-1.133001566,-95.92586517,-1.479362607
13.92680578,-10.26879883,-82.2245636,-0.594018221
13.93680578,-17.39941025,-66.58507538,3.167499065
13.94680578,-18.68196297,-55.02774048,6.254240036
13.95680578,-13.28854084,-47.41378021,10.0205431
13.96680578,-13.28854084,-47.41378021,10.0205431
13.97680578,-13.28854084,-47.41378021,10.0205431
13.98680578,-13.28854084,-47.41378021,10.0205431
13.99680578,-13.28854084,-47.41378021,10.0205431
14.00680578,-13.28854084,-47.41378021,10.0205431
14.01680578,-14.94437408,-32.21935654,25.25803757
14.02680578,-23.4676075,-22.81077766,31.5368042
14.03680578,-23.4676075,-22.81077766,31.5368042
14.04680578,-33.29253769,-3.175275564,27.5838604
14.05680578,-26.11406898,-4.663611412,23.60220528
14.06680578,-16.58106422,-7.779066563,21.68316078
14.07680578,-8.12961483,-10.76530933,20.4053936
14.08680578,-0.673579574,-13.59841156,19.46740723
14.09680578,10.85025406,-18.42712784,18.09871292
14.10680578,14.64048576,-20.0925312,17.10808372
14.11680578,16.48295784,-20.08296013,15.50010681
14.12680578,16.1766777,-19.07318878,13.23649693
14.13680578,14.10449314,-17.85284996,10.5038929
14.14680578,11.17089272,-16.33580017,7.776075363
14.15680578,8.199007034,-14.44068432,5.469394207
14.16680578,2.61415863,-8.908478737,1.712662816
14.17680578,0.26440689,-5.989234924,0.085543409
14.18680578,-1.338784218,-4.218546391,-1.130010486
14.19680578,-1.338784218,-4.218546391,-1.130010486
14.20680578,-0.620937467,-3.64426899,-2.00099802
14.21680578,0.996610641,-3.395415306,-0.957727253
14.22680578,0.996610641,-3.395415306,-0.957727253
14.23680578,0.996610641,-3.395415306,-0.957727253
14.24680578,5.030909538,-4.462614059,6.651448727
14.25680578,5.763113499,-5.103890896,8.532207489
14.26680578,6.169893265,-5.635097504,9.862616539
14.27680578,5.949753284,-5.788238049,9.819545746
14.28680578,5.949753284,-5.788238049,9.819545746
14.29680578,3.920639992,-7.281359196,7.546364307
14.30680578,4.777270317,-8.941978455,7.460222721
14.31680578,6.547959328,-10.67916775,7.603792191
14.32680578,8.060222626,-11.79422283,7.383652687
14.33680578,8.806783676,-11.99522018,7.177869797
14.34680578,8.696713448,-12.15793228,7.402794838
14.35680578,7.629515171,-13.09591866,7.608577728
14.36680578,7.954938889,-14.53161144,8.594420433
14.37680578,7.954938889,-14.53161144,8.594420433
14.38680578,10.98903847,-16.85743523,10.10189915
14.39680578,12.7884407,-17.10628891,10.53739262
14.40680578,14.10927868,-16.65643883,10.58524895
14.41680578,14.10927868,-16.65643883,10.58524895
14.42680578,14.10927868,-16.65643883,10.58524895
14.43680578,12.69272804,-15.60359669,9.795618057
14.44680578,12.5491581,-16.25922966,10.6235342
14.45680578,12.97508049,-16.59422493,11.24088287
14.46680578,13.76949787,-16.58943939,11.25523949
14.47680578,14.98026657,-16.40758514,11.74337578
14.48680578,16.06660843,-15.47916985,11.5519495
14.49680578,15.32961845,-15.16331673,10.73838997
14.50680578,15.32961845,-15.16331673,10.73838997
14.51680578,15.5545435,-15.80459309,9.747760773
14.52680578,15.5545435,-15.80459309,9.747760773
14.53680578,15.9565382,-16.04866219,9.187840462
14.54680578,15.9565382,-16.04866219,9.187840462
14.55680578,15.9565382,-16.04866219,9.187840462
14.56680578,22.10609245,-17.59921074,7.02951479
14.57680578,23.08236313,-16.64686775,5.957530022
14.58680578,23.95813751,-15.38345718,4.493122578
14.59680578,24.41755867,-14.17747402,2.023729801
14.60680578,26.48974228,-13.73240948,-1.220937729
14.61680578,34.42434311,-17.96291924,-10.88315582
14.62680578,37.77429581,-19.25982857,-12.55813122
14.63680578,39.52584076,-20.02074623,-11.51486111
14.64680578,39.99961853,-19.6522522,-7.370491982
14.65680578,40.78924942,-20.66202354,-2.96291256
14.66680578,41.5262413,-23.88276291,1.128814101
14.67680578,41.5262413,-23.88276291,1.128814101
14.68680578,36.94159317,-43.36991119,3.507279873
14.69680578,32.9551506,-51.94100189,5.727818966
14.70680578,30.44747162,-59.78945923,11.46102238
14.71680578,28.38964462,-67.90113068,20.07518387
14.72680578,25.98246384,-75.36194611,29.02433968
14.73680578,24.77648163,-81.68857574,34.81975555
14.74680578,21.27817535,-99.85488129,23.45863533
14.75680578,18.3589325,-106.7605667,20.52503395
14.76680578,18.3589325,-106.7605667,20.52503395
14.77680578,18.3589325,-106.7605667,20.52503395
14.78680578,4.222135544,-107.0333481,13.92562962
14.79680578,-4.765306473,-98.61061096,13.42792225
14.80680578,-4.765306473,-98.61061096,13.42792225
14.81680578,-4.765306473,-98.61061096,13.42792225
14.82680578,-29.93301392,-45.08317184,17.71586037
14.83680578,-31.07678413,-32.97070313,18.22313881
14.84680578,-29.10988426,-28.54398155,18.56770515
14.85680578,-27.24826813,-28.84069061,20.02254105
14.86680578,-27.24826813,-28.84069061,20.02254105
14.87680578,-30.30150986,-15.7375946,26.40180779
14.88680578,-27.32962418,-12.27278709,24.85125732
14.89680578,-20.9695015,-11.66022491,22.59243393
14.90680578,-12.939188,-12.86620712,20.74995995
14.91680578,-4.923232555,-14.79482269,19.7019043
14.92680578,2.360519648,-17.45564079,19.29033852
14.93680578,11.00339508,-21.07358932,16.76830292
14.94680578,11.47717381,-19.7527504,14.11705494
14.95680578,10.34776115,-17.54178238,11.00160027
14.96680578,8.352147102,-14.914464,8.417351723
14.97680578,6.222535133,-11.64586735,6.148955822
14.98680578,5.485546112,-10.19581699,4.464408875
14.99680578,3.681357622,-8.33898735,0.707677305
15.00680578,2.719442844,-6.271588326,-0.043669011
15.01680578,2.279163599,-4.409972191,0.253040999
15.02680578,2.513660192,-3.658625841,1.468594909
15.03680578,2.513660192,-3.658625841,1.468594909
15.04680578,3.748356581,-5.596812248,4.804189682
15.05680578,4.825126648,-6.798008919,7.613363266
15.06680578,4.825126648,-6.798008919,7.613363266
15.07680578,4.825126648,-6.798008919,7.613363266
15.08680578,8.23729229,-6.549155712,11.71944714
15.09680578,7.878368378,-6.084948063,9.034700394
15.10680578,7.792226791,-6.285944939,5.756533146
15.11680578,7.782655716,-7.343572617,2.885145903
15.12680578,7.332805157,-9.262616158,-0.96251291
15.13680578,6.916453838,-10.1527462,-0.780658364
15.14680578,7.576872826,-10.95194912,1.53080833
15.15680578,8.672785759,-11.11944675,4.627120972
15.16680578,9.830911636,-11.2008028,7.359724045
15.17680578,10.97946644,-11.59801102,9.187840462
15.18680578,12.17587757,-11.8468647,9.848259926
15.19680578,12.17587757,-11.8468647,9.848259926
15.20680578,12.78365517,-14.62732506,7.192226887
15.21680578,10.91725349,-15.05324745,6.632306099
15.22680578,9.041280746,-15.20160198,7.302296638
15.23680578,8.088936806,-16.02951813,9.283554077
15.24680578,8.486145973,-16.94836235,11.30788136
15.25680578,11.15653515,-18.41276932,10.06361389
15.26680578,12.15673542,-18.94876289,7.0151577
15.27680578,13.51585865,-19.23590088,4.110270977
15.28680578,14.06620789,-18.64726639,2.41136694
15.29680578,15.42054558,-19.20718765,1.224527001
15.30680578,17.58844376,-20.78644943,0.985244751
15.31680578,17.31566048,-18.69512367,0.324825674
15.32680578,17.31566048,-18.69512367,0.324825674
15.33680578,17.31566048,-18.69512367,0.324825674
15.34680578,17.31566048,-18.69512367,0.324825674
15.35680578,20.47418785,-18.81476402,0.209970191
15.36680578,20.76611137,-18.25484467,1.167099237
15.37680578,21.53181458,-17.55613899,2.650649309
15.38680578,22.6516552,-15.31645775,2.526222467
15.39680578,22.6516552,-15.31645775,2.526222467
15.40680578,22.6516552,-15.31645775,2.526222467
15.41680578,22.6516552,-15.31645775,2.526222467
15.42680578,26.80080986,-17.89113426,-5.432305813
15.43680578,26.75774002,-18.7860508,-5.609374523
15.44680578,26.75774002,-18.7860508,-5.609374523
15.45680578,26.75774002,-18.7860508,-5.609374523
15.46680578,26.75774002,-18.7860508,-5.609374523
15.47680578,26.75774002,-18.7860508,-5.609374523
15.48680578,39.78905106,-33.65026474,-4.838885784
15.49680578,39.40620041,-40.83830261,-7.035496712
15.50680578,36.96073532,-48.95475769,-6.169294834
15.51680578,36.96073532,-48.95475769,-6.169294834
15.52680578,27.05923462,-76.48657227,18.548563
15.53680578,21.59402847,-83.96175385,25.00918388
15.54680578,17.19123459,-88.11090851,30.7328167
15.55680578,15.63111401,-93.29854584,29.73261642
15.56680578,13.06600761,-96.61021423,22.99442673
15.57680578,13.06600761,-96.61021423,22.99442673
15.58680578,9.95055294,-104.1811066,9.489336014
15.59680578,5.777470112,-109.1773224,6.613163471
15.60680578,-5.196014404,-108.8710403,7.019943237
15.61680578,-21.4097805,-95.9306488,10.67139053
15.62680578,-36.85305786,-76.2377243,15.73460388
15.63680578,-50.73143005,-55.47759247,17.94078636
15.64680578,-69.09394836,-7.70728159,13.57627773
15.65680578,-58.58945847,-7.338787079,13.07857037
15.66680578,-41.22235107,-12.0095768,17.23729706
15.67680578,-27.17169762,-12.22493076,23.08056831
15.68680578,-13.44168091,-14.06261826,27.00479889
15.69680578,-1.716850281,-16.1013031,27.34936523
15.70680578,-1.716850281,-16.1013031,27.34936523
15.71680578,-1.716850281,-16.1013031,27.34936523
15.72680578,-1.716850281,-16.1013031,27.34936523
15.73680578,-1.716850281,-16.1013031,27.34936523
15.74680578,12.8889389,-12.62213898,11.44187927
15.75680578,10.12762165,-9.918250084,7.546364307
15.76680578,8.888139725,-8.539983749,4.354339123
15.77680578,8.888139725,-8.539983749,4.354339123
15.78680578,5.581258774,-4.66839695,-2.350350142
15.79680578,4.734199524,-3.026920557,-2.94377017
15.80680578,4.6432724,-1.892722726,-2.967698336
15.81680578,5.083551884,-1.533799291,-2.264208317
15.82680578,5.466403484,-1.619940877,-0.708873689
15.83680578,5.466403484,-1.619940877,-0.708873689
15.84680578,6.811169624,-2.280359983,6.981658459
15.85680578,7.356733322,-2.543570518,8.225926399
15.86680578,7.734799385,-2.404786825,8.589634895
15.87680578,7.677371502,-1.715653777,8.144570351
15.88680578,7.337590694,-1.141376376,6.814160824
15.89680578,7.404589653,-1.447657704,4.928616524
15.90680578,7.404589653,-1.447657704,4.928616524
15.91680578,7.404589653,-1.447657704,4.928616524
15.92680578,7.404589653,-1.447657704,4.928616524
15.93680578,7.825726509,-1.275374413,3.44985199
15.94680578,7.505088329,-0.562313318,3.186641455
15.95680578,7.797012806,-0.595812857,3.679563046
15.96680578,7.797012806,-0.595812857,3.679563046
15.97680578,11.6829567,-2.873780012,5.301896572
15.98680578,12.38166046,-3.299702406,5.053043365
15.99680578,12.60658646,-3.127419233,4.746761799
16.00680578,12.52044487,-2.691925526,4.110270977
16.01680578,12.22852039,-2.409572363,3.248854876
16.02680578,11.60160065,-2.744567633,4.024129391
16.03680578,11.75952721,-3.409772158,6.005386829
16.04680578,12.37687492,-4.074976921,7.283154011
16.05680578,13.52064419,-4.816751957,7.07737112
16.06680578,14.5830574,-5.228317261,5.823532104
16.07680578,15.35833168,-5.38624382,4.450051785
16.08680578,16.01875114,-5.496313572,2.928216696
16.09680578,16.53560066,-5.525027275,0.980459094
16.10680578,16.41117477,-5.247459888,1.621735573
16.11680578,16.05703545,-5.314459324,2.61714983
16.12680578,15.45883083,-5.601597786,2.813361168
16.13680578,14.70269871,-6.032305717,2.755933523
16.14680578,13.97528076,-6.477370739,2.813361168
16.15680578,14.44427395,-7.549355507,1.353739381
16.16680578,15.57847214,-8.362915039,-0.12023934
16.17680578,15.57847214,-8.362915039,-0.12023934
16.18680578,15.57847214,-8.362915039,-0.12023934
16.19680578,19.40698814,-9.219545364,-2.895913601
16.20680578,19.40698814,-9.219545364,-2.895913601
16.21680578,19.38784599,-11.01894855,-2.431705952
16.22680578,19.38784599,-11.01894855,-2.431705952
16.23680578,19.38784599,-11.01894855,-2.431705952
16.24680578,17.82772446,-11.48794174,-5.805585861
16.25680578,18.6364994,-11.92343521,-5.178666592
16.26680578,19.08156395,-11.61236858,-4.575675011
16.27680578,19.18684769,-11.38265705,-4.336392879
16.28680578,19.18684769,-11.38265705,-4.336392879
16.29680578,18.9619236,-12.54078388,-8.724829674
16.30680578,19.11027718,-13.52184105,-10.86879826
16.31680578,18.92842293,-13.9860487,-12.10828114
16.32680578,19.00977898,-14.95753479,-13.19462204
16.33680578,19.42134476,-16.47937012,-15.7118721
16.34680578,20.38325882,-17.56571198,-18.03290939
16.35680578,20.38325882,-17.56571198,-18.03290939
16.36680578,20.38325882,-17.56571198,-18.03290939
16.37680578,20.38325882,-17.56571198,-18.03290939
16.38680578,20.38325882,-17.56571198,-18.03290939
16.39680578,27.16930389,-40.78087616,-28.40818787
16.40680578,27.60479927,-44.85346222,-23.16312218
16.41680578,27.60479927,-44.85346222,-23.16312218
16.42680578,48.3649292,-74.19903564,0.980459094
16.43680578,48.3649292,-74.19903564,0.980459094
16.44680578,50.12604523,-89.68538666,9.685547829
16.45680578,49.24548721,-101.8504944,8.082356453
16.46680578,45.48397064,-120.423584,3.995415688
16.47680578,45.48397064,-120.423584,3.995415688
16.48680578,-2.678765059,-121.5769272,48.50191498
16.49680578,-17.23669815,-96.6054306,59.39404678
16.50680578,-25.78386116,-73.79225922,55.92923737
16.51680578,-28.83231735,-56.20500946,46.53980255
16.52680578,-29.39702225,-44.64767838,36.66701508
16.53680578,-30.09094048,-35.29652786,27.02394104
16.54680578,-35.26422501,-14.77089405,14.35633755
16.55680578,-35.26422501,-14.77089405,14.35633755
16.56680578,-34.2735939,-1.165304661,12.48993587
16.57680578,-26.38685226,-3.117847919,15.12682629
16.58680578,-17.59562111,-4.615755081,19.83590126
16.59680578,-8.646464348,-6.099305153,24.40140724
16.60680578,9.95055294,-12.48814106,26.49273491
16.61680578,9.95055294,-12.48814106,26.49273491
16.62680578,16.83231163,-13.11027527,19.09412575
16.63680578,15.11426449,-10.66959572,13.246068
16.64680578,12.16152096,-7.936992645,7.981858253
16.65680578,9.883553505,-6.151947021,4.196412563
16.66680578,8.423932076,-4.922036171,1.57866478
16.67680578,8.423932076,-4.922036171,1.57866478
16.68680578,5.897111416,-0.385244459,-1.10608232
16.69680578,5.662614822,0.141176537,-0.852443039
16.70680578,5.753541946,0.117248312,-0.474377096
16.71680578,5.753541946,0.117248312,-0.474377096
16.72680578,5.954539299,0.485742986,0.468395025
16.73680578,6.303891182,1.318445325,2.885145903
16.74680578,6.303891182,1.318445325,2.885145903
16.75680578,7.328019142,0.988235772,4.80897522
16.76680578,7.328019142,0.988235772,4.80897522
16.77680578,8.457431793,1.045663476,6.421737671
16.78680578,8.428717613,1.969292998,6.603592396
16.79680578,7.911868095,2.912065268,6.847660065
16.80680578,7.911868095,2.912065268,6.847660065
16.81680578,5.533402443,2.644068956,4.785047054
16.82680578,4.624129772,3.21356082,2.703291416
16.83680578,3.671786308,4.180261135,1.712662816
16.84680578,1.111466169,3.481556892,2.277369022
16.85680578,1.666600943,4.802394867,2.368296146
16.86680578,1.666600943,4.802394867,2.368296146
16.87680578,1.666600943,4.802394867,2.368296146
16.88680578,1.666600943,4.802394867,2.368296146
16.89680578,8.634500504,0.251246363,8.460422516
16.90680578,11.00818062,-0.074177504,9.661619186
16.91680578,10.63011456,0.169890404,12.24586773
16.92680578,10.63011456,0.169890404,12.24586773
16.93680578,10.63011456,0.169890404,12.24586773
16.94680578,4.585844517,2.175075769,13.26999664
16.95680578,3.255435228,2.395215511,11.25523949
16.96680578,1.231107235,3.510270834,8.982057571
16.97680578,-1.310070395,6.34815836,5.780461311
16.98680578,-1.788634896,6.214160442,6.483951092
16.99680578,2.298306227,-1.90229404,9.159127235
17.00680578,3.772284985,-3.223132133,13.03071404
17.01680578,5.236692429,-4.247260094,15.91645813
17.02680578,7.007380962,-6.199803352,16.58644867
17.03680578,8.35693264,-8.224131584,15.63889027
17.04680578,9.342776299,-10.18146038,14.12662697
17.05680578,9.342776299,-10.18146038,14.12662697
17.06680578,9.342776299,-10.18146038,14.12662697
17.07680578,9.342776299,-10.18146038,14.12662697
17.08680578,9.342776299,-10.18146038,14.12662697
17.09680578,12.62572861,-21.60958099,6.278168201
17.10680578,14.52563,-23.95454788,3.875774384
17.11680578,16.15753555,-25.73002243,2.105085611
17.12680578,16.15753555,-25.73002243,2.105085611
17.13680578,17.97607994,-24.77767754,-1.680359721
17.14680578,17.48315811,-24.43789673,-4.393820763
17.15680578,17.64587021,-24.01676178,-7.384849072
17.16680578,18.41157341,-24.55275345,-10.71565819
17.17680578,20.15833473,-25.31845665,-13.8981123
17.18680578,23.71406937,-25.10788727,-18.96132469
17.19680578,25.13540459,-24.14118767,-21.18664932
17.20680578,25.13540459,-24.14118767,-21.18664932
17.21680578,25.13540459,-24.14118767,-21.18664932
17.22680578,25.13540459,-24.14118767,-21.18664932
17.23680578,27.38944435,-23.81576347,-27.28356171
17.24680578,27.92543602,-25.81137848,-26.30250549
17.25680578,28.95434952,-32.91327667,-18.85604095
17.26680578,29.66262627,-38.64647675,-15.25244999
17.27680578,30.16033363,-45.58566284,-12.25185013
17.28680578,29.4281292,-53.65426254,-9.442676544
17.29680578,26.88695145,-61.22036743,-6.049654007
17.30680578,25.59004211,-68.52804565,-0.297308207
17.31680578,25.59004211,-68.52804565,-0.297308207
17.32680578,25.59004211,-68.52804565,-0.297308207
17.33680578,25.59004211,-68.52804565,-0.297308207
17.34680578,27.50429916,-89.78588104,13.51884937
17.35680578,27.05923462,-93.62397003,8.867202759
17.36680578,24.7860527,-99.72088623,4.555335999
17.37680578,18.48814392,-108.3350449,3.636492252
17.38680578,18.48814392,-108.3350449,3.636492252
17.38680578,-7.086344242,-104.6453094,20.0416851
17.40680578,-39.33680725,-58.2915535,34.68097305
17.41680578,-44.96951294,-40.14916992,35.47060394
17.42680578,-46.63970184,-27.32842827,32.74757385
17.43680578,-43.95973969,-18.75255013,29.92882729
17.44680578,-25.71207619,-15.56531143,23.75534439
17.45680578,-17.33719635,-15.53181171,21.75973129
17.46680578,-10.96750259,-14.70389557,20.25225258
17.47680578,-5.799005508,-13.8233366,18.40499306
17.48680578,-0.946361363,-13.06241894,16.37587929
17.49680578,3.178864956,-12.58864021,14.51426411
17.50680578,3.178864956,-12.58864021,14.51426411
17.51680578,3.178864956,-12.58864021,14.51426411
17.52680578,3.178864956,-12.58864021,14.51426411
17.53680578,9.309276581,-8.740981102,8.005785942
17.53680578,9.309276581,-8.740981102,8.005785942
17.55680578,8.586644173,-6.23330307,6.077171326
17.56680578,7.978867054,-5.572884083,5.545964718
17.57680578,7.978867054,-5.572884083,5.545964718
17.58680578,7.931010723,-3.979264021,5.20618391
17.59680578,8.605786324,-3.117847919,5.522036552
17.60680578,8.864211082,-2.04586339,5.83310318
17.61680578,8.687142372,-0.763310432,5.622535229
17.62680578,8.524430275,-0.174676046,5.019543648
17.63680578,8.017151833,0.193818629,4.258625984
17.64680578,7.56730175,0.892522871,4.038486481
17.65680578,7.304090977,1.107876897,3.75134778
17.66680578,7.438089371,1.213161111,3.799204111
17.67680578,7.878368378,1.739582062,3.952344894
17.68680578,8.093722343,2.371287346,4.191627026
17.69680578,8.557929993,2.500499725,5.091328144
17.70680578,9.151350021,2.778067112,7.321439266
17.71680578,9.151350021,2.778067112,7.321439266
17.72680578,9.285347939,1.552941918,6.87158823
17.73680578,8.768498421,1.136590719,6.254240036
17.74680578,8.122436523,1.217946768,6.02452898
17.75680578,7.174878597,1.753939033,7.019943237
17.76680578,6.686742783,1.452443361,11.03031445
17.77680578,6.686742783,1.452443361,11.03031445
17.78680578,8.586644173,0.342173636,14.26541042
17.79680578,9.692128181,-0.634097993,14.51904964
17.80680578,10.58225822,-1.356730461,13.72463226
17.81680578,10.76411247,-1.533799291,11.91087246
17.82680578,10.2711916,-1.170090318,9.728618622
17.83680578,9.031708717,0.122033954,7.52722168
17.84680578,8.701499939,0.232103795,7.651648521
17.85680578,8.634500504,-0.39960137,7.828717709
17.86680578,8.825926781,-1.371087432,8.101499557
17.87680578,9.275776863,-2.443071842,8.565707207
17.88680578,9.108279228,-3.046063185,8.919844627
17.89680578,9.108279228,-3.046063185,8.919844627
17.90680578,9.108279228,-3.046063185,8.919844627
17.91680578,9.108279228,-3.046063185,8.919844627
17.92680578,8.486145973,-6.893722057,10.2406826
17.93680578,8.715856552,-7.779066563,8.986844063
17.94680578,8.644071579,-8.688339233,6.88594532
17.95680578,8.538787842,-11.43529987,4.818546772
17.96680578,9.754341125,-12.5551405,4.80897522
17.97680578,11.86481094,-13.61755371,4.933402061
17.98680578,14.45384502,-14.19661713,4.15334177
17.99680578,17.55972862,-14.44546986,2.430509567
18.00680578,19.73719788,-14.03869057,-0.292522579
18.01680578,21.10110664,-13.68455315,-2.938984394
18.02680578,21.10110664,-13.68455315,-2.938984394
18.03680578,21.10110664,-13.68455315,-2.938984394
18.04680578,21.10110664,-13.68455315,-2.938984394
18.05680578,32.98865128,-15.16810226,-9.811170578
18.06680578,35.15654755,-14.99581909,-10.71087265
18.07680578,36.31945801,-13.9238348,-11.71107197
18.08680578,36.31945801,-13.9238348,-11.71107197
18.09680578,36.31945801,-13.9238348,-11.71107197
18.10680578,48.93441772,-25.27059937,-18.15733719
18.11680578,49.36512756,-34.92324829,-16.20479393
18.12680578,44.86183548,-44.42753983,-11.76850033
18.13680578,39.46841431,-54.9655304,-4.097110748
18.14680578,33.81177902,-67.11149597,5.148756027
18.15680578,17.7320118,-80.09016418,18.12742615
18.16680578,13.94656658,-81.97092438,20.20918274
18.17680578,13.67857075,-82.6648407,19.52004814
18.18680578,14.47777367,-83.6171875,15.0598278
18.19680578,14.49691582,-85.80901337,8.383852005
18.20680578,11.71167088,-89.45088959,2.310868502
18.21680578,11.71167088,-89.45088959,2.310868502
18.22680578,11.71167088,-89.45088959,2.310868502
18.23680578,11.71167088,-89.45088959,2.310868502
18.24680578,11.71167088,-89.45088959,2.310868502
18.25680578,-35.16851044,-33.72683334,26.03331184
18.26680578,-35.70928955,-25.22274399,27.36372185
18.27680578,-35.99642563,-19.81496429,26.5166626
18.28680578,-35.99642563,-19.81496429,26.5166626
18.29680578,-32.18227005,-8.386843681,21.08974075
18.30680578,-26.68834686,-7.276573658,19.78804588
18.31680578,-17.96890259,-8.094919205,19.18505287
18.32680578,-6.890132904,-10.93759251,19.03191376
18.33680578,4.571487427,-14.43589878,19.32862282
18.34680578,20.34976006,-16.05344772,16.71087456
18.35680578,21.91945267,-13.40219975,12.59043407
18.36680578,21.91945267,-13.40219975,12.59043407
18.37680578,21.91945267,-13.40219975,12.59043407
18.38680578,14.2432766,-3.706482172,-2.785843849
18.39680578,11.36231804,-1.366301775,-5.059025288
18.40680578,9.199206352,0.457029134,-5.681159019
18.41680578,7.586444378,3.543770313,-2.670988321
18.42680578,8.012366295,4.189832687,0.73160553
18.43680578,8.816354752,4.352544308,4.028914928
18.44680578,9.687342644,4.414757729,6.838088989
18.45680578,10.328619,4.34775877,8.546564102
18.46680578,10.60140038,4.003192425,8.958129883
18.47680578,9.529416084,3.567698479,5.727818966
18.48680578,9.529416084,3.567698479,5.727818966
18.49680578,9.529416084,3.567698479,5.727818966
18.50680578,9.529416084,3.567698479,5.727818966
18.51680578,5.265406132,5.338387489,1.377667665
18.52680578,4.992624283,5.079962254,2.320439816
18.53680578,4.992624283,5.079962254,2.320439816
18.54680578,4.920839787,4.146761417,6.192026615
18.55680578,5.542973518,3.529413462,6.259026051
18.56680578,6.20817852,3.031706333,6.086742401
18.57680578,6.332605362,2.945564747,6.479165554
18.58680578,5.787041664,3.194418192,7.431509018
18.59680578,5.102694511,3.409772158,8.302495956
18.60680578,4.336990833,3.610769272,8.460422516
18.61680578,4.604987144,3.615555048,7.651648521
18.62680578,5.026124001,3.347558975,6.651448727
18.63680578,5.188836098,3.022135019,6.158527374
18.64680578,4.729413986,2.940778971,6.134599209
18.65680578,3.848855257,2.778067112,5.957530022
18.66680578,3.848855257,2.778067112,5.957530022
18.67680578,3.848855257,2.778067112,5.957530022
18.68680578,3.848855257,2.778067112,5.957530022
18.69680578,3.848855257,2.778067112,5.957530022
18.69680578,-1.51106751,1.284945726,6.914659023
18.71680578,-4.090530396,-0.064606212,8.895915985
18.72680578,-4.569094658,-0.744167864,11.46102238
18.73680578,-4.569094658,-0.744167864,11.46102238
18.74680578,-2.583052158,-5.970092297,14.70090389
18.75680578,-1.731207132,-8.635697365,12.39900875
18.76680578,-0.022731815,-11.85165024,8.178069115
18.77680578,3.437289715,-15.01974773,3.411566973
18.78680578,8.495717049,-18.29312897,0.320040017
18.79680578,8.495717049,-18.29312897,0.320040017
18.80680578,8.495717049,-18.29312897,0.320040017
18.81680578,24.7477684,-19.85803604,0.032901313
18.82680578,27.82493782,-19.06840324,0.109471634
18.83680578,29.81098175,-18.37448502,0.085543409
18.84680578,30.75375366,-17.49871254,-0.35473597
18.85680578,31.21796036,-16.68515205,-0.900299549
18.86680578,29.24148941,-15.22553062,0.085543409
18.87680578,29.54776955,-14.13918877,0.846460998
18.88680578,31.50031281,-12.73699474,-1.254437327
18.89680578,34.36212921,-10.34895802,-5.250451088
18.90680578,37.34358597,-8.784051895,-9.055039406
18.91680578,42.52165604,-11.94257736,-12.05085278
18.92680578,42.52165604,-11.94257736,-12.05085278
18.93680578,42.52165604,-11.94257736,-12.05085278
18.94680578,37.62593842,-30.93680382,-3.565903902
18.95680578,33.47200012,-37.65106583,5.569892883
18.96680578,28.86342239,-42.66163635,12.69571877
18.97680578,26.45145798,-46.4087944,17.16072655
18.98680578,26.45145798,-46.4087944,17.16072655
18.99680578,26.45145798,-46.4087944,17.16072655
19.00680578,28.39443016,-68.42755127,8.795417786
19.01680578,25.05883598,-75.24230957,7.465008259
19.02680578,19.88076782,-80.17152405,7.431509018
19.03680578,13.44407368,-81.46364594,7.632505894
19.04680578,7.17009306,-78.15197754,9.738189697
19.05680578,7.17009306,-78.15197754,9.738189697
19.06680578,-7.062416077,-61.6319313,20.3431797
19.06680578,7.17009306,-78.15197754,9.738189697
19.08680578,-17.70090485,-54.18068314,27.78964424
19.09680578,-28.2867527,-48.00720215,27.91407013
19.10680578,-38.89653015,-36.91886139,27.17708206
19.11680578,-59.60401535,-9.702896118,28.99084091
19.12680578,-57.57968903,-5.548955917,29.42154884
19.13680578,-43.41896439,-8.405985832,31.65644455
19.14680578,-27.03291321,-11.67458153,33.22613525
19.15680578,-11.80977631,-15.18724537,32.10150909
19.16680578,2.34137702,-19.34118462,29.09612465
19.17680578,13.68335629,-22.13600159,24.4588356
19.18680578,21.65145493,-17.56092453,11.45623684
19.19680578,21.65145493,-17.56092453,11.45623684
19.20680578,18.87099648,-10.74138069,0.631106973
19.21680578,15.85603905,-7.984848976,-2.752344131
19.22680578,12.26202011,-5.280959606,-4.83409977
19.23680578,9.194420815,-3.127419233,-5.408377171
19.24680578,9.194420815,-3.127419233,-5.408377171
19.25680578,3.98763895,0.452243477,2.100300074
19.26680578,3.609572887,0.236889437,4.885545731
19.27680578,4.088137627,-0.562313318,6.828517437
19.28680578,5.404190063,-1.744367719,8.297710419
19.29680578,5.404190063,-1.744367719,8.297710419
19.30680578,7.576872826,-3.562912941,9.192625999
19.31680578,7.576872826,-3.562912941,9.192625999
19.32680578,7.576872826,-3.562912941,9.192625999
19.33680578,7.576872826,-3.562912941,9.192625999
19.34680578,8.481359482,-2.036292076,6.656234264
19.35680578,8.92642498,-2.529213428,6.244668961
19.36680578,9.251849174,-3.18006134,5.866602898
19.37680578,9.251849174,-3.18006134,5.866602898
19.38680578,12.24766254,-4.520041943,4.976472855
19.39680578,12.24766254,-4.520041943,4.976472855
19.40680578,13.71207047,-4.500899315,3.248854876
19.41680578,13.31007576,-5.01774931,2.799004316
19.42680578,12.7310133,-5.242674351,4.000201225
19.43680578,12.64008522,-5.654240131,4.82333231
19.44680578,12.64008522,-5.654240131,4.82333231
19.45680578,12.64008522,-5.654240131,4.82333231
19.46680578,12.64008522,-5.654240131,4.82333231
19.47680578,14.23370552,-8.492127419,5.134399414
19.48680578,15.14776421,-9.396614075,5.368896008
19.49680578,16.02353668,-10.40638542,5.54117918
19.50680578,16.02353668,-10.40638542,5.54117918
19.51680578,17.60758591,-12.44028473,1.640878081
19.52680578,17.9330101,-12.97627735,0.008973085
19.53680578,18.32543182,-13.14377499,-0.96251291
19.54680578,18.87099648,-13.41655636,-1.039083242
19.55680578,19.27777481,-14.15354633,-1.350150228
19.56680578,19.27777481,-14.15354633,-1.350150228
19.57680578,19.27777481,-14.15354633,-1.350150228
19.58680578,19.27777481,-14.15354633,-1.350150228
19.59680578,19.27777481,-14.15354633,-1.350150228
19.60680578,19.37348938,-15.50309753,-7.13120985
19.61680578,20.48854446,-15.20160198,-8.60518837
19.62680578,21.57009888,-14.79960823,-10.52901745
19.63680578,21.57009888,-14.79960823,-10.52901745
19.64680578,24.45584297,-15.66580963,-17.87498283
19.65680578,25.41775894,-16.24487305,-21.95713806
19.66680578,26.22174644,-16.19701576,-24.58924294
19.67680578,28.0355072,-18.19741631,-24.85245323
19.68680578,30.7585392,-20.97787666,-23.97668076
19.69680578,30.7585392,-20.97787666,-23.97668076
19.70680578,34.27120209,-33.22434235,-17.62134361
19.71680578,33.5198555,-38.97668839,-13.62532997
19.72680578,32.73022461,-45.35595322,-7.710272789
19.73680578,31.91666412,-50.69194794,-1.297508121
19.74680578,32.86422348,-58.81797409,3.837489367
19.75680578,32.21337509,-66.14479828,8.149355888
19.76680578,29.5286274,-75.50073242,14.07398415
19.77680578,26.46581459,-77.57770538,15.94995785
19.78680578,26.46581459,-77.57770538,15.94995785
19.79680578,23.55135727,-76.46743011,19.60140419
19.80680578,23.59442711,-76.06065369,19.8024025
19.81680578,22.26401901,-76.08457947,17.88814354
19.82680578,22.26401901,-76.08457947,17.88814354
19.83680578,4.418346882,-80.94200897,17.39522171
19.84680578,-7.82333374,-75.66344452,23.77448845
19.85680578,-22.25683975,-63.10591125,27.65564537
19.86680578,-34.66601944,-46.5092926,30.94338417
19.87680578,-41.34199142,-31.82214928,34.35076523
19.88680578,-43.89274216,-20.73859406,36.23630905
19.89680578,-32.82833099,-15.32602882,35.88695526
19.90680578,-25.10429955,-15.49352646,32.98207092
19.91680578,-19.16531372,-14.90010643,29.53640366
19.92680578,-14.50887966,-14.55554008,25.86102867
19.93680578,-14.50887966,-14.55554008,25.86102867
19.94680578,-7.584051132,-13.58883953,17.83550262
19.95680578,-7.584051132,-13.58883953,17.83550262
19.96680578,1.599601984,-12.01914787,6.656234264
19.97680578,3.944568157,-11.20558834,4.584050179
19.98680578,5.442475319,-10.06181908,3.679563046
19.99680578,5.868397713,-8.836693764,3.248854876
20.00680578,5.729613781,-7.649854183,3.081357241
20.01680578,5.729613781,-7.649854183,3.081357241
20.02680578,5.729613781,-7.649854183,3.081357241
20.03680578,5.729613781,-7.649854183,3.081357241
20.04680578,5.729613781,-7.649854183,3.081357241
20.05680578,4.796412945,-3.170490026,6.488736629
20.06680578,4.073780537,-2.457428932,6.158527374
20.07680578,3.523431301,-2.017149448,6.105885029
20.08680578,4.246063709,-2.356930256,7.283154011
20.09680578,5.619544029,-3.108276606,7.388438225
20.10680578,7.749155998,-4.462614059,5.493322372
20.11680578,8.639286041,-4.462614059,5.282754421
20.12680578,8.447860718,-3.610769272,5.359324455
20.13680578,8.065009117,-2.419143677,5.316253662
20.14680578,8.007580757,-2.203789711,6.105885029
20.15680578,9.050851822,-2.87856555,6.670591354
20.16680578,10.62054348,-3.720839262,6.890730858
20.17680578,12.39123249,-4.122833252,6.632306099
20.18680578,13.80299759,-3.701696634,5.914459229
20.19680578,14.63569927,-3.098705292,5.569892883
20.20680578,14.90369606,-3.18006134,5.775675774
20.21680578,14.90369606,-3.18006134,5.775675774
20.22680578,14.90369606,-3.18006134,5.775675774
20.23680578,14.90369606,-3.18006134,5.775675774
20.24680578,17.39701653,-4.36211586,9.843474388
20.25680578,17.99043655,-4.237689018,7.000801086
20.26680578,18.12922096,-2.964707375,5.359324455
20.27680578,17.23908997,-2.758924484,2.684148788
20.28680578,15.90868092,-2.586641312,3.057429075
20.29680578,15.90868092,-2.586641312,3.057429075
20.30680578,15.90868092,-2.586641312,3.057429075
20.31680578,15.90868092,-2.586641312,3.057429075
20.32680578,13.54935837,-7.396214962,8.771489143
20.33680578,13.57328606,-8.755337715,9.599406242
20.34680578,13.57328606,-8.755337715,9.599406242
20.35680578,13.66421413,-13.7036953,6.905087948
20.36680578,13.64985657,-15.12503147,4.062414646
20.37680578,14.00878048,-16.30708694,0.430109859
20.38680578,15.10947895,-17.3312149,-2.699702263
20.39680578,15.74118423,-18.77647972,-5.188237667
20.40680578,16.35853195,-20.8199501,-8.303692818
20.41680578,16.35853195,-20.8199501,-8.303692818
20.42680578,16.35853195,-20.8199501,-8.303692818
20.43680578,17.62194252,-23.16012955,-12.62034512
20.44680578,20.08654976,-23.67219353,-16.41057587
20.45680578,23.06322098,-24.15075874,-19.57388687
20.46680578,25.32683182,-23.79662132,-22.01935196
20.47680578,27.5330143,-21.39422798,-24.76631165
20.48680578,28.66721153,-21.8105793,-27.11606407
20.49680578,29.12184715,-22.12164497,-28.85325432
20.50680578,30.56711197,-24.21775818,-28.42254639
20.51680578,31.61516953,-27.36671257,-28.72882652
20.52680578,31.58645439,-31.90829086,-26.99163818
20.53680578,30.06462097,-45.99723053,-13.0701952
20.54680578,30.06462097,-45.99723053,-13.0701952
20.55680578,29.84926605,-59.29175186,1.013958573
20.56680578,29.35155869,-64.15875244,6.407381058
20.57680578,30.1555481,-70.49494934,9.96790123
20.58680578,29.27498817,-73.95018005,10.74796104
20.59680578,29.27498817,-73.95018005,10.74796104
20.60680578,25.60439873,-89.45088959,8.996415138
20.61680578,24.24048996,-94.02596283,8.919844627
20.62680578,21.66581345,-97.17491913,13.60499096
20.63680578,15.91825294,-97.06963348,22.77428818
20.64680578,9.658628464,-94.21260834,32.43172073
20.65680578,-1.200000525,-82.13363647,37.85864258
20.66680578,-16.6145649,-56.85107422,43.41956329
20.67680578,-16.6145649,-56.85107422,43.41956329
20.68680578,-27.14298439,-31.2478714,49.76532745
20.69680578,-29.68894768,-22.0115757,50.24389267
20.70680578,-28.36332321,-16.49372673,46.822155
20.71680578,-24.59223557,-11.64586735,40.78266907
20.72680578,-24.59223557,-11.64586735,40.78266907
20.73680578,-1.917847395,-12.52642632,22.01337051
20.74680578,5.064409256,-14.04826164,19.10848427
20.75680578,10.63011456,-15.65623856,17.22293854
20.76680578,14.39163208,-16.33580017,15.44267941
20.77680578,16.10010719,-15.42652798,13.49013615
20.78680578,15.74118423,-13.43569946,11.31745243
20.79680578,11.77388382,-9.999606133,5.809175014
20.80680578,11.77388382,-9.999606133,5.809175014
20.81680578,11.77388382,-9.999606133,5.809175014
20.82680578,6.380461693,-4.419543266,-1.541576028
20.83680578,5.179264545,-2.849851847,-2.96291256
20.84680578,4.84905529,-1.99800694,-3.628117323
20.85680578,4.84905529,-1.99800694,-3.628117323
20.86680578,1.944168448,0.787238657,0.181256309
20.87680578,2.800798893,0.035892341,2.765504837
20.88680578,3.040081263,-0.964307547,5.268397331
20.89680578,4.135993958,-1.835294962,7.618149281
20.90680578,5.600401402,-2.242074728,9.896116257
20.91680578,6.571887493,-2.199003935,11.72901821
20.92680578,7.921439171,-2.23728919,14.16491222
20.93680578,8.471788406,-2.414358139,14.98325729
20.94680578,8.840283394,-2.730210543,14.84447384
20.95680578,9.151350021,-3.18006134,13.97827148
20.96680578,9.127422333,-3.515056372,12.26979637
20.97680578,8.69192791,-3.280559778,10.05404282
20.98680578,8.69192791,-3.280559778,10.05404282
20.99680578,8.69192791,-3.280559778,10.05404282
21.00680578,8.69192791,-3.280559778,10.05404282
21.01680578,7.768298626,-3.515056372,8.426922798
21.02680578,8.864211082,-4.194618225,10.57567787
21.03680578,9.74477005,-4.476971149,12.22672558
21.04680578,9.74477005,-4.476971149,12.22672558
21.05680578,9.74477005,-4.476971149,12.22672558
21.06680578,10.86939716,-6.635297298,11.0063858
21.07680578,11.77388382,-8.027919769,9.364909172
21.08680578,12.61137199,-9.080761909,8.125427246
21.09680578,13.46800232,-9.588040352,7.058228493
21.10680578,14.92283821,-9.79860878,6.527021885
21.11680578,14.92283821,-9.79860878,6.527021885
21.12680578,14.92283821,-9.79860878,6.527021885
21.13680578,14.92283821,-9.79860878,6.527021885
21.14680578,14.92283821,-9.79860878,6.527021885
21.15680578,16.56431389,-9.645467758,5.679962635
21.16680578,17.46401596,-10.46859932,4.402195454
21.17680578,17.46401596,-10.46859932,4.402195454
21.18680578,18.7992115,-11.97607708,4.69411993
21.19680578,19.58405685,-12.37807178,5.483751297
21.20680578,20.22533417,-12.08136177,6.206383705
21.21680578,20.72303963,-11.60279655,6.292525291
21.22680578,21.90509415,-11.52144146,4.80897522
21.23680578,23.50828552,-11.66979599,1.86580348
21.24680578,25.72882462,-13.02413368,-5.126024246
21.25680578,27.4325161,-13.89990711,-5.307878971
21.26680578,29.21277618,-14.39282799,-4.154538155
21.27680578,29.21277618,-14.39282799,-4.154538155
21.28680578,32.57708359,-13.71326637,-2.814557552
21.29680578,35.07997513,-13.09113312,-5.786443233
21.30680578,35.07997513,-13.09113312,-5.786443233
21.31680578,46.30709839,-16.38844299,-16.89392662
21.32680578,49.74319458,-21.73400879,-19.90888214
21.33680578,48.4654274,-25.95973206,-20.17209244
21.34680578,45.83810806,-30.2189579,-14.30967808
21.35680578,45.77589417,-36.65086365,-4.111467361
21.36680578,45.20161438,-42.38885498,4.646263599
21.37680578,45.20161438,-42.38885498,4.646263599
21.38680578,40.0953331,-60.84708786,17.70150375
21.39680578,40.69353867,-66.63293457,19.69233131
21.40680578,41.97130585,-72.92127228,21.16631126
21.41680578,42.18666077,-82.93283844,19.5774765
21.42680578,38.09972,-92.09735107,16.37587929
21.43680578,24.65684128,-102.4104156,17.92642975
21.44680578,15.774683,-99.54381561,22.00858498
21.45680578,7.978867054,-96.85906982,24.08076859
21.46680578,-1.731207132,-88.68518829,23.41077805
21.47680578,-9.546165466,-79.09474945,23.65006065
21.48680578,-13.30768299,-72.91169739,24.02812767
21.49680578,-19.06959915,-68.6716156,19.17069626
21.50680578,-41.10749817,-47.9019165,8.541778564
21.51680578,-51.01856613,-37.86641693,9.675976753
21.52680578,-56.63691711,-28.25205612,12.95892906
21.53680578,-55.23472214,-21.8105793,17.46700668
21.54680578,-47.02733994,-19.52304077,22.75035858
21.55680578,-35.14458084,-19.34118462,27.59821892
21.56680578,-9.981659889,-22.22692871,30.9338131
21.57680578,-0.625723124,-23.96411896,28.81855774
21.58680578,4.447061062,-24.59582329,24.97568512
21.59680578,6.007181168,-23.79183578,20.00818443
21.60680578,6.634100914,-23.02134705,14.02134228
21.61680578,6.854240417,-21.76750755,7.307082176
21.62680578,6.854240417,-21.76750755,7.307082176
21.63680578,6.854240417,-21.76750755,7.307082176
21.64680578,6.854240417,-21.76750755,7.307082176
21.65680578,5.916254044,-9.736394882,-4.838885784
21.66680578,5.279763222,-8.458627701,-3.192623615
21.67680578,4.432703972,-7.463213921,-0.732801914
21.68680578,3.480360508,-6.324230194,1.990230203
21.69680578,2.776870728,-5.132604599,6.211169243
21.70680578,2.776870728,-5.132604599,6.211169243
21.71680578,3.040081263,-5.304887772,8.278568268
21.72680578,2.925225735,-5.175675392,8.828917503
21.73680578,2.62851572,-5.376672268,8.307282448
21.74680578,2.542374134,-5.917450428,6.857231617
21.75680578,3.848855257,-7.08036232,2.913859844
21.76680578,3.848855257,-7.08036232,2.913859844
21.77680578,3.848855257,-7.08036232,2.913859844
21.78680578,8.778069496,-8.506484032,2.832503796
21.79680578,8.778069496,-8.506484032,2.832503796
21.80680578,12.03230858,-8.669196129,8.876773834
21.81680578,14.13320732,-8.760123253,10.71446133
21.82680578,14.13320732,-8.760123253,10.71446133
21.83680578,17.52622986,-6.826723099,5.459823132
21.84680578,16.33460426,-6.654439926,2.947359324
21.85680578,14.59262848,-7.037291527,2.71286273
21.86680578,12.80758286,-7.396214962,4.014558315
21.87680578,11.62552929,-7.697710514,6.924230576
21.88680578,13.716856,-9.085547447,13.11207008
21.89680578,15.77946854,-8.989834785,14.62433338
21.90680578,16.93759537,-8.176275253,13.69113255
21.91680578,17.66501236,-7.348358154,11.67159081
21.92680578,17.92343712,-6.721438885,8.680562019
21.93680578,17.34916115,-6.271588326,5.933601856
21.94680578,16.6408844,-6.185446739,4.330410957
21.95680578,17.32044601,-7.549355507,6.589235306
21.96680578,18.18664932,-7.889136314,9.259625435
21.97680578,19.19163322,-8.343772888,10.70489025
21.98680578,20.11526299,-8.884550095,10.79581738
21.99680578,20.15354919,-8.918049812,9.690333366
22.00680578,20.17269135,-9.123832703,8.134998322
22.01680578,20.5938282,-10.01874828,5.340181828
22.02680578,20.5938282,-10.01874828,5.340181828
22.03680578,22.67558289,-11.33001518,3.636492252
22.04680578,23.60878372,-12.03350544,2.693720102
22.05680578,24.12563515,-11.99043465,1.928016901
22.06680578,23.82413864,-11.36830044,0.717248559
22.07680578,23.26421738,-9.521040916,-2.431705952
22.08680578,24.32184601,-8.812766075,-4.776672363
22.09680578,26.22174644,-7.802994728,-6.810571671
22.10680578,28.49492836,-7.037291527,-9.571888924
22.11680578,31.51945686,-8.673981667,-11.98385429
22.12680578,33.97449112,-10.56909752,-14.9844532
22.13680578,36.02274704,-11.13380337,-16.60200119
22.14680578,39.86562347,-14.7326088,-15.87936974
22.15680578,39.86562347,-14.7326088,-15.87936974
22.16680578,39.86562347,-14.7326088,-15.87936974
22.17680578,39.86562347,-14.7326088,-15.87936974
22.18680578,40.89932251,-35.9665184,-1.465005636
22.19680578,41.97130585,-44.67160416,2.789433002
22.20680578,41.97130585,-44.67160416,2.789433002
22.21680578,41.97130585,-44.67160416,2.789433002
22.22680578,41.97130585,-44.67160416,2.789433002
22.23680578,32.86900711,-78.84111023,16.01695633
22.24680578,30.83989525,-81.67900085,16.87358665
22.25680578,28.75335312,-84.98588562,15.97388554
22.26680578,24.76691055,-88.28797913,14.38505173
22.27680578,10.02712345,-91.26943207,6.929016113
22.28680578,-3.822534084,-88.53204346,2.105085611
22.29680578,-18.95474434,-79.71688843,1.645663738
22.30680578,-32.33540726,-70.38488007,3.119642496
22.31680578,-46.20899582,-57.09992599,2.645863533
22.32680578,-57.33083344,-42.38885498,-5.877370834
22.33680578,-66.01677704,-22.1120739,3.669991732
22.34680578,-52.77968597,-18.64248085,13.53799248
22.35680578,-39.92544174,-18.92483521,21.20459557
22.36680578,-39.92544174,-18.92483521,21.20459557
22.37680578,-39.92544174,-18.92483521,21.20459557
22.38680578,-9.000602722,-24.87817764,28.1485672
22.39680578,-1.295713425,-25.33281326,27.37807846
22.40680578,-1.295713425,-25.33281326,27.37807846
22.41680578,-1.295713425,-25.33281326,27.37807846
22.42680578,8.648857117,-19.81017876,6.278168201
22.43680578,7.926225185,-16.9914341,1.727019787
22.44680578,6.945167542,-14.12483215,-1.498505235
22.45680578,6.088537216,-11.46879864,-3.498904943
22.46680578,4.748556614,-7.836493969,-4.690530777
22.47680578,4.073780537,-6.855436802,-3.747758389
22.48680578,3.193221807,-6.104090691,-2.101496458
22.49680578,2.288734913,-5.324030399,-0.503090978
22.50680578,2.685943365,-5.022534847,1.296311617
22.51680578,4.183850288,-5.816951752,2.540579557
22.52680578,5.313262463,-6.309873104,3.435495138
22.53680578,5.313262463,-6.309873104,3.435495138
22.54680578,7.093522549,-5.754738331,4.148556232
22.55680578,6.820741177,-5.032105923,4.579264164
22.56680578,6.820741177,-5.032105923,4.579264164
22.56680578,6.026323795,-4.223331928,4.842474937
22.58680578,5.265406132,-3.783052683,4.813760757
22.59680578,5.265406132,-3.783052683,4.813760757
22.60680578,8.333004951,-6.309873104,5.947958946
22.61680578,8.902496338,-5.740381718,6.933801651
22.62680578,9.275776863,-5.606383324,8.120641708
22.63680578,9.74477005,-6.252445698,8.895915985
22.64680578,10.36690426,-6.999006271,9.273982048
22.65680578,10.36690426,-6.999006271,9.273982048
22.66680578,11.98923779,-6.750152588,9.350552559
22.67680578,12.42473125,-6.391229153,8.776275635
22.68680578,12.31466198,-6.266802311,8.024929047
22.69680578,12.31466198,-6.266802311,8.024929047
22.70680578,11.95095253,-6.893722057,7.546364307
22.71680578,12.0035944,-7.448856831,7.972286701
22.72680578,12.0035944,-7.448856831,7.972286701
22.73680578,13.03729439,-7.750352383,11.69073296
22.74680578,13.42971706,-8.056633949,12.62393379
22.75680578,13.41057491,-8.123632431,13.09771252
22.76680578,13.29093361,-8.501698494,13.19342613
22.77680578,12.91765308,-9.296115875,12.73400402
22.78680578,12.91765308,-9.296115875,12.73400402
22.79680578,12.77408409,-11.4640131,11.44187927
22.80680578,13.65464211,-11.80857944,11.37009525
22.80680578,13.65464211,-11.80857944,11.37009525
22.82680578,16.00439453,-12.00479126,10.37946606
22.83680578,17.91865158,-12.27757263,9.656833649
22.84680578,20.16312027,-12.85185051,8.359924316
22.85680578,20.16312027,-12.85185051,8.359924316
22.86680578,20.16312027,-12.85185051,8.359924316
22.87680578,31.27538872,-13.98126316,-3.910470486
22.88680578,33.49114227,-14.25883007,-5.74337244
22.89680578,33.63471222,-13.99561977,-5.843871117
22.90680578,32.51008606,-13.22513103,-4.709673405
22.91680578,31.5625267,-12.40199947,-2.747558594
22.92680578,31.44767189,-13.06241894,-4.460819721
22.93680578,32.27558899,-16.11565971,-6.781857491
22.94680578,33.82613754,-19.44647026,-7.528418064
22.95680578,34.75455093,-21.71965027,-6.848856449
22.96680578,35.89832306,-24.15075874,-3.666402578
22.97680578,36.85544968,-27.05085945,0.530608416
22.98680578,35.72603989,-33.46362305,7.508079052
22.99680578,35.72603989,-33.46362305,7.508079052
23.00680578,35.72603989,-33.46362305,7.508079052
23.01680578,29.31805992,-46.63850784,13.08814144
23.02680578,29.63869858,-53.16612625,15.5431776
23.03680578,27.92543602,-58.62654877,16.38545036
23.04680578,27.92543602,-58.62654877,16.38545036
23.05680578,25.94417953,-68.28398132,16.15574074
23.06680578,23.76192474,-70.68158722,12.80578899
23.07680578,22.03430748,-74.644104,10.48475075
23.08680578,17.50230217,-78.02755737,8.795417786
23.09680578,9.07477951,-77.78826904,8.058428764
23.10680578,-0.644865692,-75.3236618,7.345367432
23.11680578,-0.644865692,-75.3236618,7.345367432
23.12680578,-0.644865692,-75.3236618,7.345367432
23.13680578,-0.644865692,-75.3236618,7.345367432
23.14680578,-49.6211586,-38.75654984,19.99861336
23.15680578,-57.30212021,-26.11287308,21.16631126
23.16680578,-55.56014633,-17.67578125,21.37687874
23.17680578,-55.56014633,-17.67578125,21.37687874
23.18680578,-21.93141556,-18.19741631,19.86461449
23.19680578,-10.6612215,-20.52802467,20.25225258
23.20680578,-1.166501045,-22.21735764,20.39103699
23.21680578,5.968895912,-22.90170479,20.36710739
23.22680578,11.13260746,-22.82513428,19.77368736
23.23680578,14.61655712,-20.42752647,15.72981739
23.24680578,13.52542973,-18.71426582,12.1980114
23.25680578,13.52542973,-18.71426582,12.1980114
23.26680578,13.52542973,-18.71426582,12.1980114
23.27680578,5.748756409,-11.90429306,-1.503290772
23.28680578,4.365705013,-9.870393753,-5.437091351
23.29680578,3.566502094,-8.190631866,-8.107481003
23.30680578,3.566502094,-8.190631866,-8.107481003
23.30680578,1.824527264,-5.362315655,-8.81097126
23.31680578,1.800599098,-4.759324074,-7.313064098
23.32680578,2.786442041,-4.998606682,-4.757529736
23.33680578,4.183850288,-5.333601475,-2.024926186
23.34680578,5.863611698,-5.352744102,0.186041966
23.35680578,7.596015453,-5.089533806,2.157727718
23.36680578,8.854640007,-4.15633297,5.421537876
23.37680578,8.35693264,-3.625126362,6.560521603
23.38680578,7.485945702,-3.280559778,6.804589272
23.39680578,6.83509779,-3.256631613,6.455237389
23.40680578,6.83509779,-3.256631613,6.455237389
23.41680578,7.395018578,-4.601397991,5.584249973
23.42680578,7.911868095,-5.127819061,5.167898655
23.43680578,7.911868095,-5.127819061,5.167898655
23.44680578,10.40997505,-5.314459324,6.172883987
23.45680578,10.96032429,-5.280959606,6.881159782
23.46680578,11.38624668,-5.257031441,7.517650604
23.47680578,11.33839035,-5.295316696,7.93878746
23.48680578,10.98425198,-5.357530117,7.833503246
23.49680578,10.96510983,-6.032305717,8.091927528
23.50680578,11.36710358,-6.597012043,8.618349075
23.51680578,12.11845016,-6.970292568,9.541978836
23.52680578,12.79322624,-7.252645493,10.59003448
23.53680578,13.46321678,-7.73599577,11.82473087
23.54680578,14.27199078,-8.31027317,12.62871933
23.55680578,14.99462318,-8.750552177,12.63350582
23.56680578,14.99462318,-8.750552177,12.63350582
23.57680578,14.99462318,-8.750552177,12.63350582
23.58680578,14.99462318,-8.750552177,12.63350582
23.59680578,15.87996769,-9.052047729,6.608377934
23.60680578,15.63111401,-9.377471924,7.240083218
23.61680578,15.0711937,-9.808179855,8.268997192
23.62680578,15.0711937,-9.808179855,8.268997192
23.63680578,15.0711937,-9.808179855,8.268997192
23.64680578,14.67398453,-11.56451225,9.963115692
23.65680578,14.82234001,-11.93300629,9.025128365
23.66680578,15.46361637,-12.09571838,7.771289825
23.67680578,16.35374641,-11.92822075,6.460022926
23.68680578,17.39701653,-11.13858986,3.698705673
23.69680578,16.84188271,-9.836894035,1.808375716
23.70680578,16.84188271,-9.836894035,1.808375716
23.71680578,16.84188271,-9.836894035,1.808375716
23.72680578,20.25883293,-11.01416302,-2.431705952
23.73680578,21.00060844,-10.23410225,-3.431905985
23.74680578,22.04387856,-10.39202881,-3.565903902
23.75680578,22.04387856,-10.39202881,-3.565903902
23.76680578,26.4418869,-13.3208437,-2.771486759
23.77680578,27.19801903,-14.37847137,-2.484348059
23.78680578,27.79622459,-15.1154604,-1.752144337
23.79680578,28.24607468,-16.28315735,-1.2352947
23.80680578,29.13142014,-17.90070534,-0.16331014
23.81680578,31.14138985,-22.30349922,-0.043669011
23.82680578,34.11806107,-27.74477768,0.061615184
23.83680578,34.11806107,-27.74477768,0.061615184
23.83680578,35.78824997,-33.81776428,0.109471634
23.85680578,34.23770142,-42.83870316,2.899502754
23.86680578,34.07977676,-48.21298218,6.651448727
23.87680578,34.07977676,-48.21298218,6.651448727
23.88680578,34.07977676,-48.21298218,6.651448727
23.89680578,34.07977676,-48.21298218,6.651448727
23.90680578,34.07977676,-48.21298218,6.651448727
23.91680578,22.83350945,-89.70452881,11.76251793
23.92680578,17.35394669,-94.14082336,10.30768204
23.93680578,10.46740246,-95.1362381,11.3892374
23.94680578,10.46740246,-95.1362381,11.3892374
23.95680578,-12.02513027,-78.6353302,21.95115662
23.96680578,-18.05504417,-69.63832092,22.83650017
23.97680578,-23.26182556,-59.81338882,20.63031769
23.98680578,-29.04288483,-49.56732178,16.1270256
23.99680578,-34.24009705,-40.20660019,12.32243824
24.00680578,-34.24009705,-40.20660019,12.32243824
24.01680578,-34.24009705,-40.20660019,12.32243824
24.02680578,-34.24009705,-40.20660019,12.32243824
24.03680578,-34.24009705,-40.20660019,12.32243824
24.04680578,-34.24009705,-40.20660019,12.32243824
24.05680578,-16.92084503,-12.74178028,18.72563171
24.06680578,-12.41755295,-12.8757782,16.39502335
24.07680578,-12.41755295,-12.8757782,16.39502335
24.08680578,-1.956132531,-13.87119293,8.55134964
24.09680578,0.857826889,-13.68933868,6.340381622
24.10680578,3.561716557,-13.30170155,4.526622295
24.11680578,5.638686657,-12.33500099,2.961716175
24.12680578,6.882954121,-10.80359459,1.86580348
24.13680578,7.36151886,-9.032905579,1.061815023
24.14680578,6.796812534,-5.840879917,0.564107955
24.15680578,6.236892223,-4.898108006,1.234098315
24.16680578,5.385047436,-4.328616142,2.770290375
24.17680578,4.571487427,-3.974478483,4.411766529
24.18680578,3.867997885,-3.50069952,5.785246849
24.19680578,4.159922123,-3.031706333,6.436094761
24.20680578,5.586044312,-3.390629768,6.321238995
24.21680578,5.839683533,-3.113062143,6.369095802
24.22680578,5.614758492,-2.70149684,6.68016243
24.23680578,5.614758492,-2.70149684,6.68016243
24.24680578,4.954339504,-2.74935317,7.345367432
24.25680578,4.853840828,-3.256631613,7.819146156
24.26680578,4.222135544,-3.30927372,8.154141426
24.27680578,4.145565033,-3.089133978,7.694719315
24.28680578,4.719842434,-3.481556892,6.986443996
24.29680578,5.662614822,-4.232903481,6.541378975
24.30680578,6.648457527,-4.87417984,6.570092678
24.31680578,7.55294466,-5.295316696,7.010372162
24.32680578,8.275577545,-5.481956482,7.345367432
24.33680578,9.404989243,-5.630311489,7.115656376
24.34680578,9.404989243,-5.630311489,7.115656376
24.35680578,9.404989243,-5.630311489,7.115656376
24.36680578,9.404989243,-5.630311489,7.115656376
24.37680578,10.54875851,-5.745167255,8.75713253
24.38680578,10.83589745,-6.266802311,9.417551994
24.39680578,10.83589745,-6.266802311,9.417551994
24.40680578,10.83589745,-6.266802311,9.417551994
24.41680578,12.28116226,-7.477570534,10.27418232
24.42680578,12.28116226,-7.477570534,10.27418232
24.43680578,12.28116226,-7.477570534,10.27418232
24.44680578,14.965909,-7.640282631,9.029914856
24.45680578,14.91326714,-7.822137356,9.049057007
24.46680578,14.91326714,-7.822137356,9.049057007
24.47680578,14.87498188,-8.678768158,8.862417221
24.48680578,15.36311817,-9.1860466,8.407780647
24.49680578,15.92303848,-9.789037704,8.048856735
24.50680578,15.92303848,-9.789037704,8.048856735
