Time (s),Acceleration x (m/s^2),Acceleration y (m/s^2),Acceleration z (m/s^2)
0.048986412,5.734399319,2.888136864,8.197212219
0.057641256,5.983253002,2.605783939,7.93878746
0.067641256,0,0,0
0.067641256,5.959324837,2.543570518,7.914859295
0.087641256,4.356133461,2.964707375,7.302296638
0.097641256,3.982853174,3.424129248,7.41236639
0.107641256,3.958925009,3.773481369,7.71864748
0.117641256,4.179064751,3.950550079,7.886145115
0.127641256,4.43748951,3.481556892,8.962915421
0.137641256,4.456632137,3.007778168,9.101698875
0.147641256,4.269991875,2.754138947,9.264410973
0.157641256,3.757927895,2.720639229,9.149555206
0.167641256,3.150151014,2.854637384,8.876773834
0.177641256,2.695514679,3.055634499,8.613563538
0.187641256,2.666800737,3.395415306,8.187641144
0.197641256,3.049652576,3.452843189,7.986643791
0.207641256,3.466003656,3.486342669,7.852645874
0.217641256,3.714857101,3.548556089,7.752147198
0.227641256,3.738785267,3.625126362,7.771289825
0.237641256,3.628715515,3.744767427,7.847859859
0.247641256,3.394218922,3.864408493,7.890930653
0.257641256,3.748356581,3.438486099,8.082356453
0.267641256,4.059423447,3.974478483,7.996214867
0.277641256,4.150351048,4.323830605,8.087141991
0.287641256,4.384847641,4.285545349,8.364709854
0.297641256,4.767699242,4.103690624,8.364709854
0.307641256,5.040481091,4.036691666,8.55134964
0.317641256,4.791627407,3.902693748,8.55134964
0.327641256,4.356133461,3.735196114,8.58006382
0.337641256,4.10249424,3.519842148,8.623134613
0.347641256,3.901497364,3.371487141,8.47956562
0.357641256,3.743571043,3.280559778,8.235497475
0.367641256,3.49471736,3.299702406,7.957930088
0.377641256,3.293720484,3.428914785,7.728219032
0.387641256,3.293720484,3.428914785,7.728219032
0.397641256,3.293720484,3.428914785,7.728219032
0.407641256,3.470789194,3.735196114,8.082356453
0.417641256,3.733999729,3.237488985,8.192426682
0.427641256,3.489931822,3.558127165,8.058428764
0.437641256,3.47557497,4.213760853,8.106285095
0.447641256,3.47557497,4.213760853,8.106285095
0.457641256,4.092923164,6.352943897,10.35553837
0.467641256,5.002195835,7.089933395,11.15474129
0.477641256,5.787041664,7.372286797,12.05444241
0.487641256,6.557530403,7.554141045,12.37508011
0.497641256,7.481160164,7.76949501,12.580863
0.507641256,9.53898716,8.099704742,13.67199039
0.517641256,13.1138649,6.55394125,16.58644867
0.527641256,13.1138649,6.55394125,16.58644867
0.537641256,15.33440399,5.687739372,18.0460701
0.547641256,15.11905003,6.156732559,17.65364647
0.557641256,14.67877007,6.845865726,17.14158249
0.567641256,14.2432766,7.142575741,16.42852211
0.577641256,14.2432766,7.142575741,16.42852211
0.587641256,13.10429287,8.377271652,15.75374603
0.597641256,12.83629704,8.626125336,15.60060501
0.607641256,12.54437256,8.224131584,15.13161182
0.617641256,12.386446,7.209574699,14.78704548
0.627641256,12.13759327,6.022734642,14.52862072
0.637641256,12.13759327,6.022734642,14.52862072
0.647641256,9.778269768,3.883551121,14.34198093
0.657641256,9.089137077,3.783052683,13.1264267
0.667641256,8.232506752,3.672982693,11.48495007
0.677641256,7.854440212,3.381058455,9.541978836
0.687641256,7.562515736,3.06999135,7.503293514
0.697641256,7.007380962,2.840280533,5.608178139
0.707641256,7.007380962,2.840280533,5.608178139
0.717641256,7.007380962,2.840280533,5.608178139
0.727641256,7.007380962,2.840280533,5.608178139
0.737641256,5.337191105,0.653240561,0.521037102
0.747641256,4.911268711,-0.035892341,-0.847657442
0.757641256,4.389633179,-0.538385093,-2.264208317
0.767641256,2.853441,-1.777867198,-4.709673405
0.777641256,2.853441,-1.777867198,-4.709673405
0.787641256,2.853441,-1.777867198,-4.709673405
0.797641256,0.656829834,-2.644068956,-4.403391838
0.807641256,0.029910283,-3.026920557,-3.240479946
0.817641256,-0.434297323,-3.117847919,-1.862214208
0.827641256,-0.726221681,-2.998206854,-0.661017239
0.837641256,-0.888933599,-3.074777126,-0.125024989
0.847641256,-0.898504913,-3.127419233,-0.785444021
0.857641256,-0.879362345,-3.156133175,-1.642074585
0.867641256,-0.668793917,-3.270988464,-2.350350142
0.877641256,0.125623181,-3.878765583,-2.819343328
0.887641256,-0.166301176,-3.806980848,-3.388834953
0.897641256,-0.769292474,-3.907479286,-4.345963955
0.907641256,-0.936790049,-4.228117466,-4.814957142
0.917641256,-1.066002488,-4.534399033,-4.905884743
0.927641256,-1.257428288,-4.883750916,-4.393820763
0.937641256,-1.673779488,-5.319244862,-3.192623615
0.947641256,-2.118844509,-5.931807518,-1.723430514
0.957641256,-2.286342144,-6.955935478,-1.063011408
0.967641256,-1.817348838,-9.013762474,-0.708873689
0.977641256,-1.94177556,-9.688538551,0.669392109
0.987641256,-3.200400352,-10.92802143,1.57866478
0.997641256,-5.301298618,-11.30608654,2.526222467
1.007641256,-7.387839794,-10.04267693,4.038486481
1.017641256,-7.875975609,-8.401200294,7.000801086
1.027641256,-7.378268719,-9.229117393,10.81974602
1.037641256,-6.46421051,-9.382257462,10.59960651
1.047641256,-5.239085197,-9.458827972,9.259625435
1.057641256,-5.239085197,-9.458827972,9.259625435
1.067641256,-3.061616659,-10.17667484,4.483551502
1.077641256,-2.429911375,-11.98086262,3.97627306
1.087641256,-2.429911375,-11.98086262,3.97627306
1.097641256,-2.429911375,-11.98086262,3.97627306
1.107641256,-2.429911375,-11.98086262,3.97627306
1.117641256,-8.282755852,-18.90090561,38.42334747
1.127641256,-3.501895905,-20.63809586,37.00679779
1.137641256,6.294320107,-23.15534401,33.26442337
1.147641256,17.86122513,-25.11745834,31.21138
1.157641256,17.86122513,-25.11745834,31.21138
1.167641256,44.56991196,-24.46182632,52.04808044
1.177641256,49.67619324,-23.47598267,55.5942421
1.187641256,57.04130173,-26.85464859,53.45505905
1.197641256,63.8895607,-30.56352425,48.41098785
1.207641256,67.73243713,-33.104702,46.56373215
1.217641256,72.69993591,-44.31268311,52.62714386
1.227641256,72.69993591,-44.31268311,52.62714386
1.237641256,72.93921661,-62.34499359,48.02335358
1.247641256,70.35496521,-68.59983063,34.43690491
1.257641256,66.34459686,-73.47640228,18.45763588
1.267641256,61.06602859,-78.54918671,4.722833633
1.277641256,52.94957733,-79.88916779,-6.934998035
1.287641256,52.94957733,-79.88916779,-6.934998035
1.297641256,28.00200653,-59.06682587,-25.27837753
1.307641256,24.86740875,-51.13701248,-25.34058952
1.317641256,22.24487495,-42.46542358,-23.34976196
1.327641256,19.1246357,-35.42095184,-20.55494499
1.337641256,16.20539093,-30.46302414,-17.22892189
1.347641256,16.20539093,-30.46302414,-17.22892189
1.357641256,6.351747513,-18.85305023,-8.676973343
1.367641256,4.217350006,-17.67578125,-5.571089268
1.377641256,3.896711588,-18.94397736,-6.643074036
1.387641256,1.30289197,-17.84327888,-8.528617859
1.397641256,-1.956132531,-13.83290768,-9.055039406
1.407641256,-4.827519894,-8.812766075,-7.226922512
1.417641256,-1.396211982,-5.204389095,0.248255342
1.427641256,1.8628124,-4.778466702,2.918645382
1.437641256,4.054637909,-3.869194269,4.34476757
1.447641256,5.806184292,-2.648854733,4.698905468
1.457641256,6.3373909,-1.720439434,4.067200184
1.467641256,6.543173313,-1.141376376,3.406781197
1.477641256,8.132007599,-0.945164919,4.445266247
1.487641256,9.342776299,-0.413958311,5.593821049
1.497641256,9.342776299,-0.413958311,5.593821049
1.507641256,9.342776299,-0.413958311,5.593821049
1.517641256,10.80239773,1.045663476,6.148955822
1.527641256,9.701699257,1.978864312,5.86181736
1.537641256,9.701699257,1.978864312,5.86181736
1.547641256,9.701699257,1.978864312,5.86181736
1.557641256,10.52004433,5.831308842,9.336195946
1.567641256,11.19003487,6.032305717,10.16411209
1.577641256,11.66860008,6.061019897,10.72881889
1.587641256,12.68315601,6.285944939,10.93460083
1.597641256,13.74556923,5.850451469,10.99681473
1.607641256,18.07657814,6.24766016,8.651848793
1.617641256,19.70848465,6.53958416,7.776075363
1.627641256,20.06740761,6.817151546,7.421937466
1.637641256,19.6271286,7.530212879,7.41236639
1.647641256,18.7992115,8.157132149,7.546364307
1.657641256,18.32543182,8.13320446,8.063214302
1.667641256,17.62672806,7.381857872,9.29791069
1.677641256,17.62672806,7.381857872,9.29791069
1.687641256,17.62672806,7.381857872,9.29791069
1.697641256,17.62672806,7.381857872,9.29791069
1.707641256,17.62672806,7.381857872,9.29791069
1.717641256,15.04247952,6.142375946,7.522436142
1.727641256,14.27199078,5.644668579,7.0151577
1.737641256,14.27199078,5.644668579,7.0151577
1.747641256,12.72144127,4.074976921,3.009572744
1.757641256,12.02752304,3.601198196,1.990230203
1.767641256,10.90289593,3.122633457,1.234098315
1.777641256,9.361918449,2.696711063,0.597607434
1.787641256,7.150950432,1.849651933,-0.158524498
1.797641256,4.906482697,2.510071039,0.468395025
1.807641256,3.89192605,0.983450115,0.109471634
1.817641256,1.920240164,-0.614955425,-0.407378048
1.827641256,0.876969516,-1.184447169,-1.015154958
1.837641256,0.010767702,-1.275374413,-1.072582722
1.847641256,-1.252642632,-1.43808639,-1.024726272
1.857641256,-1.903490424,-2.04586339,-0.814157903
1.867641256,-1.903490424,-2.04586339,-0.814157903
1.877641256,-1.903490424,-2.04586339,-0.814157903
1.887641256,-1.903490424,-2.04586339,-0.814157903
1.897641256,-0.841077149,-4.309473515,-1.149153113
1.907641256,-0.841077149,-4.309473515,-1.149153113
1.917641256,0.36011982,-4.721039295,-2.015354872
1.927641256,0.36011982,-4.721039295,-2.015354872
1.937641256,0.36011982,-4.721039295,-2.015354872
1.947641256,0.020338992,-5.156532764,-1.072582722
1.957641256,-0.530010223,-5.204389095,-0.550947428
1.967641256,-1.022931695,-5.338387489,-0.206380948
1.977641256,-1.353141189,-5.458028316,-0.019740786
1.987641256,-1.673779488,-5.654240131,0.109471634
1.997641256,-3.640679598,-6.21894598,1.095314622
2.007641256,-5.014159679,-6.448657036,3.291925669
2.017641256,-4.808377266,-6.769295216,5.589035511
2.027641256,-4.076173306,-6.879364967,7.0151577
2.037641256,-3.927818298,-6.506084919,8.891130447
2.047641256,-4.37288332,-5.027320385,11.15952682
2.057641256,-6.014359951,-3.538984776,9.872187614
2.067641256,-6.808776855,-4.323830605,6.546164513
2.077641256,-7.210771084,-4.481756687,3.492922783
2.087641256,-7.210771084,-4.481756687,3.492922783
2.097641256,-4.315455437,-5.836094379,0.353539556
2.107641256,-3.104687452,-7.104290485,1.143171072
2.117641256,-3.104687452,-7.104290485,1.143171072
2.127641256,-3.104687452,-7.104290485,1.143171072
2.137641256,-3.104687452,-7.104290485,1.143171072
2.147641256,-1.099501967,-11.71765232,20.36232185
2.157641256,-0.927218795,-12.12443256,22.7025032
2.167641256,-0.276371002,-12.60299683,23.95155716
2.177641256,0.881755173,-12.72263813,24.10469627
2.187641256,0.881755173,-12.72263813,24.10469627
2.197641256,10.46261692,-15.65145302,28.77070045
2.207641256,15.87996769,-17.26421547,37.14079666
2.217641256,23.94856453,-19.3507576,44.81697083
2.227641256,34.66841125,-22.21735764,48.58327103
2.237641256,46.13481522,-26.06980324,49.96154022
2.247641256,58.52485275,-30.86023331,53.87619781
2.257641256,61.71687698,-32.27678299,56.45087433
2.267641256,65.5453949,-35.63630676,59.39883041
2.277641256,71.10153198,-41.88157654,61.90172195
2.287641256,78.04550171,-51.93143082,60.5138855
2.297641256,82.51528931,-61.83771515,52.34000397
2.307641256,83.40542603,-70.5428009,39.15555191
2.317641256,76.69594574,-86.69435883,10.96331501
2.327641256,68.86184692,-91.77192688,-0.34037903
2.337641256,68.86184692,-91.77192688,-0.34037903
2.347641256,46.75216675,-78.68797302,-23.15354919
2.357641256,41.27260208,-69.90631104,-30.35594559
2.367641256,37.37229919,-60.83751678,-33.94039536
2.377641256,26.16910553,-41.07279968,-33.05026627
2.387641256,18.11964989,-33.72683334,-27.5084877
2.397641256,11.62552929,-28.42433929,-20.87558365
2.407641256,7.643871784,-24.64368057,-13.65404415
2.417641256,3.384647608,-20.73380852,-8.399405479
2.427641256,1.896311998,-16.85743523,-5.843871117
2.437641256,2.178664923,-14.38325691,-6.154938221
2.447641256,3.346362352,-10.08096218,-8.63390255
2.457641256,3.619144201,-6.678368092,-7.461419106
2.467641256,4.255635262,-4.314259052,-5.370092392
2.477641256,4.815555573,-3.136990547,-3.273979664
2.487641256,4.561916351,-2.36650157,-0.460020155
2.497641256,4.509274483,-2.414358139,1.942373753
2.507641256,4.470989227,-2.581855536,5.478965759
2.517641256,3.805784464,-1.701296926,6.665805817
2.527641256,3.805784464,-1.701296926,6.665805817
2.537641256,3.198007345,-0.423529595,5.019543648
2.547641256,3.011367321,-0.356530577,2.923431158
2.557641256,3.011367321,-0.356530577,2.923431158
2.567641256,3.011367321,-0.356530577,2.923431158
2.577641256,3.011367321,-0.356530577,2.923431158
2.587641256,3.011367321,-0.356530577,2.923431158
2.597641256,3.949353695,-1.232303619,-0.077168532
2.607641256,5.557330608,-1.371087432,1.14795661
2.617641256,7.074379921,-1.864008784,0.999601662
2.627641256,8.117650986,-2.031506538,-0.134596273
2.637641256,10.25204849,-1.916650891,-2.694916487
2.647641256,11.41496086,-2.132004976,-3.063411236
2.657641256,12.5491581,-2.309073925,-2.580060959
2.667641256,13.85563946,-2.227717876,-1.541576028
2.677641256,15.68375587,-2.285145521,-0.211166605
2.687641256,18.44985962,-2.68713975,1.138385415
2.697641256,25.0109787,-3.299702406,2.497508526
2.707641256,28.34657288,-3.323630571,3.162713289
2.717641256,28.34657288,-3.323630571,3.162713289
2.727641256,28.34657288,-3.323630571,3.162713289
2.737641256,35.31925964,-3.668197155,9.436694145
2.747641256,35.87439346,-3.026920557,12.10708427
2.757641256,35.71646881,-2.184647083,13.60499096
2.767641256,35.71646881,-2.184647083,13.60499096
2.777641256,35.71646881,-2.184647083,13.60499096
2.787641256,32.66322708,-0.648454964,18.08914185
2.797641256,31.04089165,-0.547956407,18.63470459
2.807641256,29.49034309,-0.983450115,19.33819389
2.817641256,27.48994255,-1.672582984,20.13261223
2.827641256,21.58924294,-3.538984776,21.01317024
2.837641256,18.3350029,-5.113461971,20.10868263
2.847641256,14.48734474,-6.56829834,18.22792435
2.857641256,10.21854877,-6.999006271,16.17966843
2.867641256,5.964110374,-7.008577347,14.16491222
2.877641256,2.446661234,-6.817151546,12.4181509
2.887641256,0.015553347,-6.525227547,11.08295631
2.897641256,-3.879961967,-5.012963295,9.83868885
2.907641256,-4.588237286,-4.563112736,9.446265221
2.917641256,-4.454239368,-4.960321426,8.40299511
2.927641256,-4.569094658,-4.888536453,6.56530714
2.937641256,-4.942375183,-4.510470867,4.545764923
2.947641256,-5.301298618,-4.065405846,2.813361168
2.957641256,-5.301298618,-4.065405846,2.813361168
2.967641256,-5.301298618,-4.065405846,2.813361168
2.977641256,-3.750749588,-3.763910055,-0.326022089
2.987641256,-3.516252756,-3.615555048,-0.474377096
2.997641256,-3.406183004,-3.476771355,-0.646660328
3.007641256,-3.396611691,-3.567698479,-0.842871785
3.017641256,-3.396611691,-3.567698479,-0.842871785
3.027641256,-4.636094093,-3.625126362,-1.244866014
3.037641256,-4.636094093,-3.625126362,-1.244866014
3.047641256,-4.956732273,-3.237488985,-1.47457695
3.057641256,-4.492524624,-3.242274761,-1.838286042
3.067641256,-4.157529354,-3.290131092,-2.905484915
3.077641256,-4.16710043,-3.304488182,-4.331607342
3.087641256,-4.16710043,-3.304488182,-4.331607342
3.097641256,-4.076173306,-3.950550079,-7.126423836
3.107641256,-3.602394581,-4.256831646,-6.920641422
3.117641256,-2.760120869,-4.711467743,-6.049654007
3.127641256,-2.238485575,-5.127819061,-4.465605259
3.137641256,-2.257628202,-5.405386448,-2.072782516
3.147641256,-2.257628202,-5.405386448,-2.072782516
3.157641256,-5.042873859,-4.476971149,2.612364054
3.167641256,-6.162714481,-4.558327198,3.258426189
3.177641256,-7.564908981,-5.041677475,4.186841488
3.187641256,-9.349954605,-5.280959606,4.976472855
3.197641256,-10.89571762,-5.730810165,5.187041283
3.207641256,-11.46520996,-6.525227547,5.076971531
3.217641256,-10.31186962,-8.219346046,5.995815277
3.227641256,-9.010173798,-9.085547447,6.943373203
3.237641256,-7.392625332,-10.24367332,7.512865067
3.247641256,-6.000002861,-11.59801102,7.766504288
3.257641256,-4.597808838,-12.60778236,8.589634895
3.267641256,-2.568695068,-13.440485,10.20718288
3.277641256,3.030509949,-15.83330727,17.62493324
3.287641256,4.758127689,-16.86222076,23.51127625
3.297641256,5.82532692,-17.7954216,29.31626511
3.307641256,6.17946434,-18.74776459,33.95355606
3.317641256,6.648457527,-19.81974983,36.7818718
3.327641256,11.36231804,-22.37049866,38.98805237
3.337641256,21.87638092,-26.8307209,42.66821671
3.347641256,21.87638092,-26.8307209,42.66821671
3.357641256,21.87638092,-26.8307209,42.66821671
3.367641256,74.89654541,-39.56532288,55.68516922
3.377641256,80.24689484,-44.89174652,54.83811188
3.387641256,80.90731812,-49.18447113,50.88038254
3.397641256,76.16952515,-52.71627426,46.64987183
3.407641256,76.16952515,-52.71627426,46.64987183
3.407641256,62.68836594,-70.98786926,40.72045898
3.427641256,48.3409996,-92.55677032,29.20140839
3.437641256,48.3409996,-92.55677032,29.20140839
3.447641256,54.27519989,-94.0977478,4.330410957
3.457641256,61.12345886,-89.36952972,-3.216551781
3.467641256,60.12804413,-79.54938507,-9.428318977
3.477641256,60.12804413,-79.54938507,-9.428318977
3.487641256,60.12804413,-79.54938507,-9.428318977
3.497641256,20.98146629,-38.90969086,-34.7874527
3.507641256,8.624929428,-31.89393234,-32.17449188
3.517641256,1.963310957,-26.64886665,-24.19203568
3.527641256,-2.559123755,-25.18924332,-15.0466671
3.537641256,-2.559123755,-25.18924332,-15.0466671
3.547641256,-2.559123755,-25.18924332,-15.0466671
3.557641256,-16.16949844,-10.52602673,-9.892526627
3.567641256,-13.65703487,-7.324429989,-6.403791428
3.577641256,-10.73779202,-5.548955917,-2.900699139
3.587641256,-7.272984505,-4.204189301,-0.302093863
3.597641256,0.618544638,-3.409772158,0.937388241
3.607641256,3.791427374,-2.921636343,0.406181633
3.617641256,5.485546112,-1.610369682,1.10010016
3.627641256,6.356533527,-0.547956407,2.856431961
3.637641256,6.70588541,0.179461703,5.234897614
3.647641256,6.839883327,0.653240561,7.709076405
3.657641256,6.906882763,0.782453001,9.111269951
3.667641256,6.605386734,0.509671211,8.81456089
3.677641256,6.361319065,0.217746854,8.321639061
3.687641256,6.275177479,-0.007178468,7.996214867
3.697641256,6.437889099,-0.050249275,7.790432453
3.707641256,7.04088068,-0.289531529,7.680362701
3.717641256,7.840083599,-0.485742986,7.225726128
3.727641256,9.749555588,-0.251246363,5.67039156
3.737641256,10.44347477,0.25603202,4.942973614
3.747641256,11.38624668,0.729810894,4.80897522
3.757641256,11.38624668,0.729810894,4.80897522
3.767641256,14.22891998,1.227517962,6.795018196
3.777641256,15.2291193,1.380658627,8.288139343
3.787641256,16.10489273,1.533799291,10.41296577
3.797641256,16.10489273,1.533799291,10.41296577
3.807641256,16.10489273,1.533799291,10.41296577
3.817641256,16.10489273,1.533799291,10.41296577
3.827641256,24.66162682,2.868994236,10.1210413
3.837641256,27.62394142,3.462414265,9.106484413
3.847641256,31.79223824,3.529413462,8.694919586
3.857641256,36.94159317,2.902493954,8.714061737
3.867641256,36.65445328,2.562713146,8.340781212
3.877641256,33.79263687,2.309073925,7.967501163
3.887641256,29.96412086,1.418943882,7.742575645
3.897641256,25.86760902,-0.098105729,7.197012424
3.907641256,21.84288216,-1.51944232,6.474380016
3.917641256,17.53580093,-2.227717876,5.531607628
3.927641256,10.95075321,-2.897708178,3.813561201
3.937641256,8.390432358,-3.754338741,2.621935368
3.947641256,6.045466423,-3.926621914,0.975673437
3.957641256,6.045466423,-3.926621914,0.975673437
3.967641256,1.877169371,-2.787638426,-3.139981508
3.977641256,0.604187727,-3.026920557,-5.106881618
3.987641256,0.604187727,-3.026920557,-5.106881618
3.997641256,0.604187727,-3.026920557,-5.106881618
4.007641256,0.460618347,-6.166304111,-1.383649707
4.017641256,0.355334163,-6.338587284,0.879960537
4.027641256,0.451047063,-6.448657036,2.334796667
4.037641256,0.537188709,-6.329015732,2.607578516
4.047641256,1.508674622,-5.314459324,0.937388241
4.057641256,2.106880426,-5.041677475,-0.570089996
4.067641256,2.398804665,-4.950749874,-2.058425665
4.077641256,2.23130703,-4.816751957,-2.493919373
4.087641256,1.575673699,-4.850251675,-1.421934843
4.097641256,0.74297142,-5.338387489,0.171685025
4.107641256,-0.419940382,-5.749952793,1.999801517
4.117641256,-2.731407166,-5.601597786,5.057828903
4.127641256,-3.655036688,-4.965106964,5.469394207
4.137641256,-4.664807796,-4.342973232,5.234897614
4.147641256,-4.664807796,-4.342973232,5.234897614
4.157641256,-5.913861275,-4.706682205,3.358924866
4.167641256,-6.009573936,-5.175675392,3.148356438
4.177641256,-6.009573936,-5.175675392,3.148356438
4.187641256,-6.009573936,-5.175675392,3.148356438
4.197641256,-6.009573936,-5.175675392,3.148356438
4.207641256,-6.641279221,-6.970292568,5.837889194
4.217641256,-6.555137634,-7.774280548,6.455237389
4.227641256,-6.689135551,-8.070990562,7.92443037
4.227641256,-6.689135551,-8.070990562,7.92443037
4.247641256,-6.689135551,-8.070990562,7.92443037
4.257641256,-7.60319376,-7.252645493,15.39960861
4.267641256,-7.60319376,-7.252645493,15.39960861
4.277641256,-4.995017052,-7.180860519,11.65723324
4.287641256,-3.310470104,-7.027719975,9.608977318
4.297641256,-1.649851203,-7.195217609,8.034500122
4.307641256,-0.482153773,-8.286344528,8.321639061
4.317641256,-0.472582459,-9.525827408,9.987043381
4.327641256,-0.558724105,-11.42572784,12.19322586
4.337641256,0.307477713,-13.87597847,16.1270256
4.347641256,1.762313843,-16.45065498,22.19043922
4.357641256,4.021138668,-18.05384636,30.45046234
4.367641256,7.792226791,-19.35554314,37.30350494
4.377641256,20.91446686,-24.49053955,41.03152466
4.387641256,31.09353447,-28.29034233,44.05605316
4.397641256,44.42634201,-32.08535767,48.99483871
4.407641256,58.35256958,-34.15754318,53.61777115
4.417641256,72.97750092,-38.35455322,56.90550995
4.427641256,84.55397797,-44.58067703,54.88118362
4.437641256,84.55397797,-44.58067703,54.88118362
4.447641256,84.55397797,-44.58067703,54.88118362
4.457641256,84.55397797,-44.58067703,54.88118362
4.467641256,69.72805023,-73.39505005,55.45067215
4.477641256,63.31528473,-87.39785004,46.25266266
4.487641256,63.31528473,-87.39785004,46.25266266
4.497641256,63.31528473,-87.39785004,46.25266266
4.507641256,63.31528473,-87.39785004,46.25266266
4.517641256,39.08555984,-103.9753189,-25.97229576
4.517641256,39.08555984,-103.9753189,-25.97229576
4.537641256,32.17987442,-75.72087097,-41.24328995
4.547641256,30.1555481,-62.63213348,-41.97549438
4.557641256,25.75275421,-49.58167648,-39.78845215
4.567641256,12.86501122,-27.28535652,-24.19203568
4.577641256,9.395418167,-22.95913315,-16.58285904
4.587641256,6.265605927,-19.551754,-12.02213955
4.597641256,6.265605927,-19.551754,-12.02213955
4.607641256,0.321834654,-13.86162186,-11.38086224
4.617641256,-0.4869394,-12.04307652,-13.84547043
4.627641256,-0.4869394,-12.04307652,-13.84547043
4.637641256,-0.4869394,-12.04307652,-13.84547043
4.647641256,1.795813441,-3.897907972,-1.800000787
4.657641256,1.164108157,-1.825723648,2.856431961
4.667641256,0.321834654,-1.060020447,5.632106304
4.677641256,0.197407871,-1.485942841,5.895316601
4.687641256,-0.108873427,-1.610369682,5.096114159
4.697641256,-0.108873427,-1.610369682,5.096114159
4.707641256,-0.965503931,-0.342173636,5.593821049
4.717641256,-0.965503931,-0.342173636,5.593821049
4.727641256,0.063409798,1.959721804,6.517450809
4.737641256,1.345962763,3.227917671,6.235097408
4.747641256,3.073580742,3.964907169,5.172684193
4.757641256,3.073580742,3.964907169,5.172684193
4.767641256,3.073580742,3.964907169,5.172684193
4.777641256,11.51067352,4.252045631,3.531208038
4.777641256,11.51067352,4.252045631,3.531208038
4.797641256,12.18066406,3.591626883,7.254439831
4.807641256,10.24726295,4.496113777,10.17368412
4.817641256,9.022137642,3.859622955,11.03031445
4.827641256,9.251849174,1.811366796,8.800203323
4.837641256,9.251849174,1.811366796,8.800203323
4.847641256,10.82154083,3.247060299,4.689334393
4.857641256,12.27159119,3.759124279,2.746362209
4.867641256,13.70728493,4.252045631,1.918445587
4.877641256,15.09512138,4.601397991,2.641077995
4.887641256,17.48315811,4.850251675,8.134998322
4.897641256,17.55015755,4.855037212,10.33160973
4.907641256,17.44008827,5.00339222,11.14995575
4.917641256,17.2438755,5.252245903,10.57567787
4.927641256,16.64566994,5.970092297,9.671191216
4.937641256,15.58804321,7.022934437,8.240283012
4.947641256,14.53041553,8.013563156,6.383452415
4.957641256,14.0997076,9.047262192,5.057828903
4.967641256,14.81755447,8.525627136,5.177470207
4.977641256,15.53061581,8.71705246,5.632106304
4.987641256,15.87039661,8.855836868,5.71824789
4.997641256,15.70289898,8.181060791,5.885745525
5.007641256,14.69791317,7.487142086,5.593821049
5.017641256,14.69791317,7.487142086,5.593821049
5.027641256,14.69791317,7.487142086,5.593821049
5.037641256,14.69791317,7.487142086,5.593821049
5.047641256,8.907281876,2.524427891,2.90428853
5.057641256,8.907281876,2.524427891,2.90428853
5.067641256,7.524230957,1.720439434,0.554536641
5.077641256,6.126822472,1.265803218,-1.173081279
5.087641256,5.284548759,1.29451704,-1.996212244
5.097641256,4.829912663,0.86380899,-2.513062
5.107641256,4.48534584,0.227318153,-2.718844652
5.117641256,4.030709743,-0.093320087,-2.570489645
5.127641256,3.408575773,-0.428315252,-2.393420935
5.137641256,2.556730986,-1.165304661,-2.723630428
5.147641256,-0.051445685,-2.041077614,-4.154538155
5.157641256,-1.147358418,-2.490928411,-4.838885784
5.167641256,-1.779063582,-3.046063185,-5.786443233
5.177641256,-2.023131609,-3.558127165,-6.853642464
5.187641256,-1.87956214,-4.108476639,-7.552346706
5.197641256,-1.65463686,-4.835894585,-7.7868433
5.207641256,-0.156729877,-6.329015732,-6.365506649
5.217641256,0.671186745,-6.86022234,-5.264808178
5.227641256,0.872183859,-7.228717327,-4.747958183
5.237641256,0.628115952,-7.467999458,-4.259822369
5.247641256,0.020338992,-7.755138397,-3.278765202
5.257641256,-0.908076167,-7.884350777,-2.364706993
5.267641256,-1.98963201,-7.812565804,-1.192223907
5.277641256,-1.98963201,-7.812565804,-1.192223907
5.287641256,-1.98963201,-7.812565804,-1.192223907
5.297641256,-1.98963201,-7.812565804,-1.192223907
5.307641256,-6.234499454,-8.975478172,1.281954765
5.317641256,-7.866404533,-8.535198212,0.669392109
5.327641256,-8.483752251,-8.477770805,0.994816005
5.337641256,-8.483752251,-8.477770805,0.994816005
5.347641256,-8.483752251,-8.477770805,0.994816005
5.357641256,-6.952346325,-10.29631615,2.066800594
5.367641256,-6.952346325,-10.29631615,2.066800594
5.377641256,-5.42572546,-10.92323494,6.55095005
5.387641256,-5.20558548,-11.55015469,8.082356453
5.397641256,-5.813362598,-12.86620712,9.63290596
5.407641256,-6.545566559,-14.88574982,13.07857037
5.417641256,-5.626722336,-16.30230141,14.50947857
5.427641256,-3.918246984,-17.72363663,16.94537163
5.437641256,-1.496710539,-18.48455429,19.99382782
5.447641256,1.082752228,-18.84826469,22.42015076
5.457641256,3.820141315,-19.63789558,23.89891434
5.467641256,8.342576027,-22.00200462,24.38226509
5.477641256,11.72124195,-22.4135704,24.95654106
5.487641256,16.28674698,-23.28934288,25.89931488
5.497641256,22.18266296,-24.94038963,28.62713242
5.507641256,29.30370331,-26.83550644,32.60878754
5.517641256,35.81696701,-28.70669365,36.14059448
5.527641256,35.81696701,-28.70669365,36.14059448
5.537641256,35.81696701,-28.70669365,36.14059448
5.547641256,35.81696701,-28.70669365,36.14059448
5.557641256,61.76473618,-49.8353157,28.58406067
5.567641256,64.77490234,-52.62534714,21.52044868
5.577641256,67.2921524,-56.53043365,14.60997677
5.587641256,69.78069305,-63.00062561,7.393223763
5.597641256,59.25705719,-69.6622467,2.799004316
5.607641256,52.28437042,-76.45307922,11.00160027
5.617641256,46.37409973,-87.41220093,23.26721001
5.617641256,46.37409973,-87.41220093,23.26721001
5.637641256,29.86362267,-112.8383408,38.45684814
5.647641256,17.60280037,-122.3713455,31.66601753
5.657641256,-5.990431309,-119.9928741,10.61396313
5.667641256,-17.16969872,-101.9222794,4.426123619
5.677641256,-21.02214241,-83.51668549,3.067000389
5.687641256,-20.35215378,-68.78647614,2.961716175
5.697641256,-20.06022835,-56.53043365,2.803789854
5.707641256,-22.21376991,-44.94438934,3.966701746
5.717641256,-22.85504532,-36.66043472,5.790032387
5.727641256,-22.85504532,-36.66043472,5.790032387
5.737641256,-22.85504532,-36.66043472,5.790032387
5.747641256,-22.85504532,-36.66043472,5.790032387
5.757641256,-15.43250942,-18.02991867,-0.000598206
5.767641256,-16.44228172,-15.98166275,1.415952802
5.777641256,-17.27976799,-13.41177082,0.348753899
5.787641256,-17.27976799,-13.41177082,0.348753899
5.797641256,-17.27976799,-13.41177082,0.348753899
5.807641256,-8.450253487,-5.970092297,-2.905484915
5.817641256,-5.779862881,-5.793023586,-2.632703066
5.827641256,-3.779463291,-5.606383324,-2.517847538
5.837641256,-2.305484533,-5.300102234,-2.670988321
5.847641256,-0.888933599,-4.792823792,-2.618346214
5.857641256,2.001596212,-4.639683247,-3.546761274
5.867641256,2.906083107,-4.831109047,-3.704687595
5.877641256,3.37986207,-4.764110088,-3.465405464
5.887641256,3.46121788,-4.481756687,-3.178266764
5.897641256,3.37986207,-4.237689018,-2.508276224
5.907641256,3.18843627,-4.161118507,-1.728216171
5.917641256,3.312862873,-4.094119549,-0.144167557
5.927641256,3.523431301,-4.352544308,0.631106973
5.937641256,3.442075491,-4.462614059,1.071386337
5.947641256,3.442075491,-4.462614059,1.071386337
5.957641256,3.442075491,-4.462614059,1.071386337
5.967641256,3.274577856,-3.16570425,2.727219582
5.977641256,3.274577856,-3.16570425,2.727219582
5.987641256,5.365904808,-4.577469826,5.067399979
5.997641256,5.648257732,-5.151747227,5.311468124
6.007641256,5.523830891,-5.572884083,5.210969448
6.017641256,5.294120312,-5.639883041,4.737190723
6.027641256,5.318048477,-5.553741455,4.071985722
6.037641256,5.586044312,-5.481956482,3.406781197
6.047641256,5.87318325,-5.745167255,2.703291416
6.057641256,5.84446907,-5.984449387,2.540579557
6.067641256,5.375475883,-6.099305153,2.062014818
6.077641256,4.638486862,-6.453442574,1.72223413
6.087641256,4.035495281,-7.25743103,1.693520188
6.097641256,3.489931822,-8.137989998,1.91365993
6.107641256,2.762513638,-9.071190834,3.090928555
6.117641256,2.982653379,-8.965906143,4.004986763
6.127641256,3.710071564,-8.908478737,4.34476757
6.137641256,4.939982414,-8.965906143,4.48833704
6.147641256,6.480959892,-9.075976372,5.0291152
6.157641256,8.132007599,-9.348757744,5.986244202
6.167641256,9.687342644,-9.56411171,7.115656376
6.177641256,9.687342644,-9.56411171,7.115656376
6.187641256,9.687342644,-9.56411171,7.115656376
6.197641256,9.687342644,-9.56411171,7.115656376
6.207641256,15.05683613,-7.92742157,7.948358536
6.217641256,15.99003696,-7.664210796,7.776075363
6.227641256,17.09073639,-8.023134232,8.383852005
6.237641256,17.09073639,-8.023134232,8.383852005
6.247641256,17.09073639,-8.023134232,8.383852005
6.247641256,22.32144547,-8.367700577,15.303895
6.267641256,22.32144547,-8.367700577,15.303895
6.277641256,35.09911728,-8.118846893,19.44347954
6.287641256,38.72663879,-7.716853142,19.19941139
6.297641256,41.44488525,-8.334200859,18.62513351
6.307641256,43.68935394,-9.272188187,18.3475666
6.317641256,42.95714951,-9.310472488,17.92642975
6.327641256,41.38745499,-8.98026371,17.90250015
6.337641256,40.1719017,-9.817750931,18.16571045
6.347641256,39.46362686,-11.32522964,18.19921112
6.357641256,38.65485382,-12.88535023,17.83071709
6.367641256,36.7310257,-17.07279015,16.53380585
6.377641256,34.75455093,-19.10190392,16.40937996
6.387641256,32.11766052,-21.20280075,16.28495216
6.397641256,32.11766052,-21.20280075,16.28495216
6.407641256,25.02054977,-24.21297264,14.49033546
6.417641256,21.22553253,-25.21317291,13.11207008
6.427641256,14.33898926,-26.26122856,10.41296577
6.437641256,11.17567825,-26.14637375,9.206983566
6.447641256,8.443074226,-26.0650177,8.331210136
6.457641256,8.443074226,-26.0650177,8.331210136
6.467641256,8.443074226,-26.0650177,8.331210136
6.477641256,1.594816327,-24.57668114,9.91047287
6.487641256,-0.683150887,-22.22692871,10.99681473
6.497641256,-0.683150887,-22.22692871,10.99681473
6.507641256,-2.812762976,-17.03928947,9.867402077
6.517641256,-2.750549555,-15.64188194,8.115856171
6.527641256,-3.152543783,-14.15354633,6.263811588
6.537641256,-3.937389612,-12.91884899,4.143770695
6.547641256,-5.430510998,-11.01894855,2.669791937
6.557641256,-7.234699249,-8.702695847,2.157727718
6.567641256,-7.741977692,-7.625925541,2.93778801
6.577641256,-8.244470596,-6.577869415,3.344567776
6.587641256,-8.517251968,-5.960521221,3.411566973
6.597641256,-8.30668354,-5.5154562,3.000001431
6.607641256,-7.866404533,-5.170889854,1.81794703
6.617641256,-7.373483181,-5.00339222,-0.038883369
6.627641256,-6.24407053,-4.993820667,-3.25005126
6.637641256,-6.220142365,-5.309673309,-3.575475216
6.647641256,-6.660421848,-6.084948063,-1.991426587
6.657641256,-6.607779503,-6.955935478,0.286540508
6.667641256,-7.445267677,-7.276573658,1.779661894
6.677641256,-8.684749603,-7.621140003,3.162713289
6.687641256,-8.684749603,-7.621140003,3.162713289
6.697641256,-8.684749603,-7.621140003,3.162713289
6.707641256,-8.684749603,-7.621140003,3.162713289
6.717641256,-8.684749603,-7.621140003,3.162713289
6.727641256,-10.24965572,-9.774680138,4.904688358
6.737641256,-9.85244751,-10.44467068,5.560321808
6.747641256,-9.584450722,-10.99980545,6.148955822
6.757641256,-9.584450722,-10.99980545,6.148955822
6.767641256,-8.402397156,-13.33041477,8.627920151
6.777641256,-7.368697166,-14.61296749,9.76211834
6.787641256,-6.157928944,-15.73280907,10.91545868
6.797641256,-4.683950424,-16.1252327,12.58564854
6.807641256,-2.980260611,-16.5655117,14.91147232
6.817641256,-2.980260611,-16.5655117,14.91147232
6.827641256,-2.980260611,-16.5655117,14.91147232
6.837641256,-2.980260611,-16.5655117,14.91147232
6.847641256,6.026323795,-20.29352951,22.88914299
6.857641256,13.33878994,-21.62872314,20.80260277
6.867641256,22.71865463,-22.71027946,19.40040779
6.877641256,31.4237442,-22.99741936,18.9362011
6.887641256,36.35295868,-21.33679962,26.98565483
6.897641256,36.9703064,-23.79183578,38.06921005
6.907641256,39.42534256,-27.42892647,45.93680954
6.917641256,45.5796814,-31.87479019,46.63072968
6.927641256,54.12684631,-35.66501999,41.65365982
6.937641256,64.31548309,-38.71347809,35.10689545
6.947641256,82.63014984,-49.16054153,22.03251266
6.957641256,84.89376068,-52.90769958,20.83131599
6.967641256,86.97551727,-62.29713821,20.78824425
6.977641256,87.15737152,-71.6195755,22.00379944
6.987641256,84.56354523,-81.11907959,22.99442673
6.997641256,78.78727722,-90.94879913,24.44447708
7.007641256,63.15735626,-118.5858994,15.07418442
7.017641256,63.15735626,-118.5858994,15.07418442
7.027641256,63.15735626,-118.5858994,15.07418442
7.037641256,63.15735626,-118.5858994,15.07418442
7.047641256,16.5403862,-92.37970734,-35.76372528
7.057641256,13.01336575,-78.54440308,-41.2385025
7.067641256,9.893125534,-65.24987793,-40.88436508
7.067641256,9.893125534,-65.24987793,-40.88436508
7.087641256,-1.094716311,-38.03391647,-25.70429993
7.097641256,-3.927818298,-31.38186836,-22.04806519
7.107641256,-6.631708145,-25.74437904,-19.90888214
7.117641256,-8.861818314,-21.31287193,-18.5976162
7.127641256,-9.249456406,-18.71426582,-18.2339077
7.137641256,-9.249456406,-18.71426582,-18.2339077
7.147641256,-7.316055298,-10.01874828,-13.54876041
7.157641256,-4.559523582,-8.449056625,-8.815756798
7.167641256,-1.180858016,-7.152146816,-3.943969965
7.177641256,1.8628124,-5.146961689,-0.263808697
7.187641256,4.011567116,-2.830709219,2.114656925
7.197641256,5.279763222,-1.213161111,3.067000389
7.207641256,6.20817852,1.543370605,1.511665702
7.217641256,7.069594383,1.782652855,0.454038084
7.227641256,8.371290207,1.548156261,-0.287736923
7.237641256,9.548559189,1.064806104,-0.852443039
7.247641256,10.2281208,0.418743968,-1.015154958
7.257641256,10.33819008,-0.088534437,-1.01036942
7.267641256,10.33819008,-0.088534437,-1.01036942
7.277641256,10.33819008,-0.088534437,-1.01036942
7.287641256,10.33819008,-0.088534437,-1.01036942
7.297641256,5.557330608,0.490528643,-0.503090978
7.307641256,5.212764263,0.404387027,0.128614217
7.317641256,5.495117188,-0.016749758,0.320040017
7.327641256,6.088537216,-0.490528643,0.190827608
7.337641256,6.088537216,-0.490528643,0.190827608
7.347641256,6.088537216,-0.490528643,0.190827608
7.357641256,8.361719131,-3.428914785,-2.005783558
7.367641256,7.773084164,-3.950550079,-2.091925144
7.377641256,6.710670948,-4.314259052,-1.718644857
7.387641256,5.782256126,-4.936393261,-0.699302435
7.397641256,5.782256126,-4.936393261,-0.699302435
7.407641256,3.298506021,-5.625525951,2.545365095
7.417641256,2.930011272,-5.520241737,3.22492671
7.427641256,2.901297569,-5.38624382,3.478565931
7.437641256,3.561716557,-5.237888813,3.535993576
7.447641256,3.561716557,-5.237888813,3.535993576
7.457641256,6.801598549,-5.477170944,1.94715941
7.467641256,8.423932076,-5.477170944,1.77009058
7.477641256,10.54875851,-5.553741455,1.72223413
7.487641256,12.19502068,-5.716453075,1.727019787
7.497641256,13.51107311,-5.601597786,2.210369825
7.507641256,14.54477215,-5.324030399,3.095714331
7.517641256,15.24826241,-5.089533806,4.31126833
7.527641256,15.24826241,-5.089533806,4.31126833
7.537641256,15.24826241,-5.089533806,4.31126833
7.547641256,25.85325241,-2.998206854,9.929615974
7.557641256,30.94039345,-3.098705292,10.08754253
7.567641256,36.04188919,-3.663411379,9.800403595
7.577641256,40.71268082,-4.323830605,9.60419178
7.587641256,40.71268082,-4.323830605,9.60419178
7.597641256,48.95834732,-4.639683247,9.546764374
7.607641256,48.83391953,-4.548755646,9.541978836
7.617641256,47.31687164,-4.68275404,9.786046028
7.627641256,44.99583435,-5.682953835,10.35553837
7.637641256,42.14358902,-6.893722057,11.30788136
7.647641256,38.49692535,-7.89870739,12.61914825
7.657641256,30.95475006,-10.3776722,16.3136673
7.667641256,27.2075901,-11.34915733,16.74437523
7.677641256,23.58485603,-12.13878918,15.54796314
7.687641256,20.26361847,-12.94756317,13.39920902
7.697641256,17.44965935,-13.99083424,11.13559818
7.707641256,13.77906895,-13.75155163,9.814760208
7.717641256,7.414160728,-13.73240948,10.30768204
7.727641256,4.609772682,-13.97647667,11.37966633
7.737641256,1.704886079,-13.85683632,12.51865005
7.747641256,-1.209571838,-13.46441269,13.50449276
7.757641256,-3.856033802,-13.30648708,13.85384464
7.767641256,-5.894718647,-12.66042423,12.9828577
7.777641256,-7.205985546,-11.32044411,10.77667522
7.787641256,-7.904689789,-7.860422611,5.536393166
7.797641256,-7.406982422,-6.458228111,4.100699902
7.807641256,-6.617351055,-5.280959606,3.162713289
7.817641256,-5.650650501,-4.520041943,2.29651165
7.827641256,-5.071587563,-4.338187218,0.793818891
7.837641256,-4.640879631,-4.151547432,-0.847657442
7.847641256,-2.740978241,-4.591826439,-3.125624657
7.857641256,-2.740978241,-4.591826439,-3.125624657
7.867641256,-2.740978241,-4.591826439,-3.125624657
7.877641256,-2.740978241,-4.591826439,-3.125624657
7.887641256,-1.903490424,-4.749752998,-0.948155999
7.897641256,-2.492124796,-5.300102234,0.73160553
7.907641256,-2.492124796,-5.300102234,0.73160553
7.917641256,-6.617351055,-5.72123909,4.981258392
7.927641256,-7.856832981,-5.716453075,5.20618391
7.937641256,-8.340183258,-6.051448345,5.416752338
7.947641256,-8.69910717,-6.783652306,4.818546772
7.957641256,-9.349954605,-7.290930748,4.325624943
7.967641256,-9.924231529,-7.611568928,4.205984116
7.977641256,-10.3788681,-8.181060791,4.785047054
7.987641256,-10.18265629,-8.621339798,5.943173409
7.997641256,-9.799804688,-9.205188751,7.981858253
8.007641256,-9.598808289,-10.25803089,10.77667522
8.017641256,-9.598808289,-10.25803089,10.77667522
8.027641256,-9.388239861,-11.00459099,17.64886093
8.037641256,-9.388239861,-11.00459099,17.64886093
8.047641256,-9.388239861,-11.00459099,17.64886093
8.057641256,-9.388239861,-11.00459099,17.64886093
8.067641256,-5.215157032,-15.93380642,24.48754883
8.077641256,-0.687936485,-17.32164383,22.02294159
8.087641256,4.332205296,-19.09233093,19.78326035
8.097641256,8.505288124,-20.13081741,18.42413521
8.107641256,8.505288124,-20.13081741,18.42413521
8.117641256,13.69292736,-20.21217346,24.58804703
8.127641256,14.60698605,-20.84866333,29.95275497
8.137641256,17.2055912,-22.42314148,35.36053467
8.147641256,22.0869503,-25.0743885,39.03591156
8.157641256,29.55255699,-27.49113846,40.18925095
8.167641256,49.32205582,-29.36711311,36.88715744
8.177641256,49.32205582,-29.36711311,36.88715744
8.187641256,74.64290619,-37.52185059,32.47000504
8.197641256,83.25228119,-42.30749893,29.10091019
8.207641256,83.1661377,-42.17828369,27.14836693
8.217641256,80.06025696,-43.42733765,28.01457024
8.227641256,77.0165863,-49.37589645,29.39762115
8.237641256,68.49813843,-67.48477936,31.82872772
8.247641256,68.49813843,-67.48477936,31.82872772
8.257641256,56.33781433,-93.85368347,25.07618332
8.267641256,47.81936264,-111.4217834,18.21835327
8.277641256,35.55854034,-124.2233887,8.393424034
8.287641256,23.24507523,-123.3667603,-3.881756544
8.297641256,19.11506462,-98.98867798,-24.07717896
8.307641256,19.11506462,-98.98867798,-24.07717896
8.317641256,23.68535423,-68.3079071,-22.01456642
8.327641256,23.68535423,-68.3079071,-22.01456642
8.337641256,10.90768242,-40.40759659,-20.71287155
8.347641256,10.90768242,-40.40759659,-20.71287155
8.357641256,2.23130703,-27.47678185,-22.34956169
8.367641256,-3.195614576,-22.27957153,-13.12283802
8.377641256,-3.195614576,-22.27957153,-13.12283802
8.387641256,-7.933403492,-18.15434456,-2.283350945
8.397641256,-9.034101486,-16.38844299,-1.60378933
8.407641256,-8.751749039,-14.59382534,-3.001197815
8.417641256,-7.182057381,-12.94756317,-3.939184189
8.427641256,-2.846262455,-9.501898766,-2.120639086
8.437641256,-1.190429211,-7.544569969,-0.804586589
8.447641256,0.652044177,-5.840879917,0.181256309
8.457641256,2.331805706,-4.922036171,0.109471634
8.467641256,3.791427374,-4.424329281,-0.77108711
8.477641256,4.758127689,-4.261617184,-2.058425665
8.487641256,4.609772682,-3.548556089,-4.00139761
8.497641256,4.442275047,-3.59641242,-4.393820763
8.507641256,4.068994999,-3.936193228,-4.791028976
8.517641256,3.57128787,-3.443271875,-4.432105541
8.527641256,3.37986207,-2.706282377,-3.388834953
8.537641256,3.863212109,-2.36650157,-2.312064886
8.547641256,3.863212109,-2.36650157,-2.312064886
8.557641256,6.739385128,-1.931007862,-1.20179522
8.567641256,7.141379356,-1.859223247,-1.728216171
8.577641256,7.471588612,-1.667797327,-2.331207514
8.587641256,8.132007599,-1.634297848,-2.699702263
8.597641256,9.242277145,-1.974078655,-2.991626501
8.607641256,10.05583763,-2.950350285,-3.570689678
8.617641256,10.61575794,-2.404786825,-3.087339401
8.627641256,10.61575794,-2.404786825,-3.087339401
8.637641256,15.42533112,-1.730010748,1.506880045
8.647641256,19.83769608,-1.43808639,4.421338081
8.657641256,25.14976311,-0.820738196,7.149155617
8.667641256,28.89692307,1.069591761,9.494122505
8.677641256,31.30410194,3.270988464,11.76251793
8.687641256,32.90729523,4.644468784,13.11207008
8.697641256,32.28037262,4.381258488,12.4181509
8.707641256,31.38067245,3.711267948,10.70489025
8.717641256,30.46182823,3.022135019,8.335995674
8.727641256,29.51427078,2.275574446,5.746961594
8.737641256,28.47578621,1.682154298,4.411766529
8.747641256,28.47578621,1.682154298,4.411766529
8.757641256,28.47578621,1.682154298,4.411766529
8.767641256,28.47578621,1.682154298,4.411766529
8.777641256,28.47578621,1.682154298,4.411766529
8.787641256,15.37747478,-4.199403763,8.642276764
8.797641256,13.06122208,-4.577469826,9.06341362
8.807641256,10.5918293,-4.185046673,9.077771187
8.817641256,10.5918293,-4.185046673,9.077771187
8.827641256,4.748556614,-3.907479286,6.125027657
8.837641256,3.844069481,-4.079762459,5.660820007
8.847641256,2.843869686,-4.271188259,5.895316601
8.857641256,1.953739643,-3.998406649,6.627520561
8.867641256,1.73360002,-3.572484255,7.04387188
8.877641256,2.657229662,-2.46221447,5.536393166
8.887641256,3.126222849,-1.682154298,4.071985722
8.897641256,3.030509949,-0.624526739,2.923431158
8.907641256,2.193022013,0.150747821,2.167299032
8.917641256,1.092323542,0.342173636,1.81794703
8.927641256,-0.34337005,0.356530577,1.894517303
8.937641256,-0.34337005,0.356530577,1.894517303
8.947641256,-0.34337005,0.356530577,1.894517303
8.957641256,-0.34337005,0.356530577,1.894517303
8.967641256,-0.34337005,0.356530577,1.894517303
8.977641256,-4.042674065,0.217746854,2.330011129
8.987641256,-2.831905603,0.433100909,0.961316526
8.997641256,-2.831905603,0.433100909,0.961316526
9.007641256,-3.075973511,0.093320087,-1.996212244
9.017641256,-3.923032761,-0.390030086,-1.646860242
9.027641256,-4.779663086,-1.351944804,-0.948155999
9.037641256,-6.057430744,-2.380858421,-0.11545369
9.047641256,-7.751548767,-3.122633457,1.415952802
9.057641256,-9.235098839,-3.701696634,3.124428272
9.067641256,-10.06780148,-5.056034088,4.416552544
9.077641256,-9.187242508,-5.563312531,3.77049017
9.087641256,-7.866404533,-6.056233883,3.425923824
9.097641256,-6.028716564,-6.573083878,3.650849104
9.107641256,-4.731806755,-7.166503906,3.674777269
9.117641256,-4.315455437,-7.477570534,3.689134359
9.127641256,-4.238885403,-7.668996811,4.071985722
9.137641256,-4.238885403,-7.668996811,4.071985722
9.147641256,-4.238885403,-7.668996811,4.071985722
9.157641256,-0.381655216,-9.970891953,8.575278282
9.167641256,1.393819213,-10.09531879,10.89153004
9.177641256,2.796013355,-9.970891953,13.07378483
9.187641256,3.55693078,-10.22453117,15.94995785
9.197641256,3.55693078,-10.22453117,15.94995785
9.207641256,3.55693078,-10.22453117,15.94995785
9.217641256,7.203592777,-15.34517193,26.11945343
9.227641256,15.65504169,-17.51785469,25.37767792
9.237641256,26.9060936,-18.10170364,22.55414772
9.247641256,35.68775177,-17.09671783,17.71586037
9.257641256,43.9860611,-19.71925163,14.45205021
9.267641256,54.08377457,-25.61038017,20.23311043
9.277641256,57.35237122,-29.44368172,29.61297417
9.287641256,62.92285919,-34.20539856,38.82055664
9.297641256,69.93861389,-38.79004669,41.79244232
9.307641256,74.86304474,-42.51806641,35.55674744
9.317641256,78.83992004,-45.47559357,25.39203644
9.327641256,78.83992004,-45.47559357,25.39203644
9.337641256,78.83992004,-45.47559357,25.39203644
9.347641256,78.83992004,-45.47559357,25.39203644
9.357641256,86.12845612,-72.81598663,14.40419388
9.367641256,84.05626678,-81.68857574,25.02832603
9.377641256,78.14121246,-84.19625092,30.89074135
9.387641256,66.27281189,-106.0666504,14.30848122
9.387641256,78.14121246,-84.19625092,30.89074135
9.407641256,66.27281189,-106.0666504,14.30848122
9.417641256,31.68216896,-99.21839142,-38.47718811
9.427641256,31.68216896,-99.21839142,-38.47718811
9.437641256,12.22852039,-71.23672485,-49.4076004
9.447641256,12.22852039,-71.23672485,-49.4076004
9.457641256,12.22852039,-71.23672485,-49.4076004
9.467641256,12.22852039,-71.23672485,-49.4076004
9.477641256,-0.22372891,-32.7409935,-15.80279922
9.487641256,-5.56929493,-30.77887726,-21.38286209
9.497641256,-5.56929493,-30.77887726,-21.38286209
9.507641256,-16.97348785,-20.97309113,-27.9726944
9.517641256,-16.96391678,-13.75633717,-13.88375473
9.527641256,-12.62812138,-12.21057415,-5.288736343
9.537641256,-12.62812138,-12.21057415,-5.288736343
9.547641256,-12.62812138,-12.21057415,-5.288736343
9.557641256,-0.228514567,-5.142175674,-0.795015335
9.567641256,1.872383714,-3.385843992,-3.757329702
9.577641256,3.772284985,-2.639283419,-6.016154289
9.587641256,3.772284985,-2.639283419,-6.016154289
9.597641256,3.882354736,-2.845066071,-6.317649841
9.607641256,3.882354736,-2.845066071,-6.317649841
9.617641256,3.934996843,-1.634297848,-3.699902058
9.627641256,5.633901119,-0.547956407,-2.268994093
9.637641256,7.481160164,0.390030086,-1.421934843
9.647641256,7.481160164,0.390030086,-1.421934843
9.657641256,11.07996559,0.787238657,-1.718644857
9.667641256,11.24267673,1.079162955,-1.680359721
9.677641256,10.4913311,0.658026218,-1.60378933
9.687641256,8.921639442,0.672383189,-1.441077471
9.697641256,7.639086246,1.983649969,-1.005583763
9.707641256,7.428517818,3.610769272,-0.713659346
9.717641256,10.42433167,3.969692707,-0.000598206
9.727641256,12.27159119,4.003192425,0.851246655
9.737641256,13.66899967,4.701896667,1.535593987
9.747641256,15.06162167,5.644668579,1.789233088
9.757641256,16.2771759,5.922235966,2.124228239
9.767641256,16.39203072,5.831308842,1.918445587
9.777641256,16.39203072,5.831308842,1.918445587
9.787641256,16.39203072,5.831308842,1.918445587
9.797641256,16.39203072,5.831308842,1.918445587
9.807641256,19.67976952,8.937192917,6.311667919
9.817641256,23.37428856,8.941978455,7.532007694
9.827641256,27.23151779,8.874979019,8.335995674
9.837641256,29.40420151,9.296115875,8.302495956
9.847641256,29.40420151,9.296115875,8.302495956
9.857641256,29.40420151,9.296115875,8.302495956
9.867641256,23.5178566,8.003992081,5.622535229
9.877641256,22.02952194,6.793223381,5.7038908
9.887641256,20.45982933,5.797809124,6.187241077
9.897641256,19.46920204,4.802394867,6.574878216
9.907641256,19.46920204,4.802394867,6.574878216
9.917641256,12.76451206,2.012363911,5.110470772
9.927641256,9.079565048,2.122433662,4.450051785
9.937641256,5.619544029,2.050648928,3.660420418
9.947641256,2.748156786,1.983649969,2.660220623
9.957641256,0.781256616,1.892722726,1.731805444
9.967641256,0.786042213,1.318445325,0.741176844
9.977641256,0.786042213,1.318445325,0.741176844
9.987641256,0.206979156,0.189032987,-0.527019203
9.997641256,-1.156929731,0.126819596,-1.417149186
10.00764126,-2.535195589,-0.30388847,-2.034497499
10.01764126,-3.401397467,-0.902094126,-2.264208317
10.02764126,-3.099901676,-1.591227055,-1.871785522
10.03764126,-0.458225548,-2.122433662,-1.613360643
10.04764126,0.843469977,-2.309073925,-1.771286964
10.05764126,0.843469977,-2.309073925,-1.771286964
10.06764126,0.853041291,-2.754138947,-2.83370018
10.07764126,-0.908076167,-3.06999135,-3.661616802
10.08764126,-3.12383008,-3.926621914,-3.943969965
10.09764126,-3.12383008,-3.926621914,-3.943969965
10.10764126,-3.12383008,-3.926621914,-3.943969965
10.11764126,-8.378468513,-6.319444656,-0.416949332
10.12764126,-8.153543472,-6.750152588,-1.890928149
10.13764126,-7.29691267,-7.310073376,-3.613760471
10.14764126,-6.014359951,-7.534998417,-5.475376606
10.15764126,-4.018745422,-7.70728159,-6.839285374
10.16764126,-1.28614223,-6.994220734,-7.054639339
10.17764126,-1.300499082,-6.496513367,-6.351149559
10.18764126,-1.47756803,-6.774080753,-4.886742115
10.19764126,-1.563709617,-7.200003147,-2.484348059
10.20764126,-1.372283816,-7.965706348,0.324825674
10.21764126,-1.305284739,-9.162117958,3.622135162
10.22764126,-1.305284739,-9.162117958,3.622135162
10.23764126,-1.305284739,-9.162117958,3.622135162
10.24764126,-1.305284739,-9.162117958,3.622135162
10.25764126,4.772484779,-9.166903496,11.76730347
10.26764126,9.548559189,-8.606983185,11.30788136
10.27764126,14.71705532,-8.568697929,12.47557926
10.28764126,18.42114449,-9.525827408,17.92164421
10.29764126,21.93859482,-11.32044411,44.37668991
10.30764126,21.93859482,-11.32044411,44.37668991
10.31764126,21.93859482,-11.32044411,44.37668991
10.32764126,21.93859482,-11.32044411,44.37668991
10.33764126,46.75695038,-12.9954195,36.90151215
10.34764126,48.79085159,-12.66521072,36.66223145
10.35764126,48.7047081,-17.29771423,49.8706131
10.36764126,51.48516846,-21.06880379,56.60879898
10.37764126,56.91687393,-25.97887611,58.93462372
10.38764126,64.45426941,-32.47299576,54.48397446
10.39764126,72.77650452,-39.02933121,46.51587296
10.40764126,80.39524841,-47.45206451,38.02135468
10.41764126,83.40542603,-70.83473206,25.60738945
10.42764126,77.7440033,-82.43034363,18.4480648
10.43764126,66.05745697,-84.82317352,14.66740417
10.44764126,55.83531952,-88.22576141,15.93560028
10.45764126,49.36991501,-96.24650574,17.06022644
10.46764126,43.61756897,-102.4439163,12.40379429
10.47764126,43.61756897,-102.4439163,12.40379429
10.48764126,43.61756897,-102.4439163,12.40379429
10.49764126,43.61756897,-102.4439163,12.40379429
10.50764126,43.61756897,-102.4439163,12.40379429
10.51764126,7.251449108,-52.99384308,-35.9168663
10.52764126,-2.965903759,-37.60799408,-32.03570938
10.53764126,-11.91027451,-25.55773926,-23.05305099
10.54764126,-11.91027451,-25.55773926,-23.05305099
10.55764126,-8.321041107,-17.14936066,-9.107681274
10.56764126,-7.48833847,-12.28235817,-10.64865875
10.57764126,-5.60279417,-10.02831936,-13.09412384
10.58764126,-4.090530396,-7.980063438,-14.54417419
10.59764126,-3.324826956,-5.568098068,-14.56331635
10.60764126,-2.798406124,-3.639483213,-12.94098282
10.61764126,0.005982057,-1.371087432,-6.154938221
10.62764126,2.130808592,-0.433100909,-2.934198856
10.63764126,4.332205296,0.461814761,-0.440877587
10.64764126,6.064609051,1.040877819,1.124028444
10.65764126,7.083951473,1.399801254,1.597807288
10.66764126,7.371089935,1.80658114,1.468594909
10.67764126,6.672386169,2.026720762,0.994816005
10.68764126,5.643472195,1.610369682,0.544965386
10.69764126,5.643472195,1.610369682,0.544965386
10.70764126,4.930410862,2.691925526,0.669392109
10.71764126,5.964110374,2.505285263,0.736391187
10.72764126,8.002795219,2.127219439,0.832104087
10.73764126,10.2711916,2.275574446,1.05224371
10.74764126,10.2711916,2.275574446,1.05224371
10.75764126,10.2711916,2.275574446,1.05224371
10.76764126,14.85583973,2.46221447,0.674177766
10.77764126,14.52084446,3.103491068,1.05224371
10.78764126,14.63091373,3.424129248,1.827518344
10.79764126,15.18126297,3.361915827,2.382653236
10.80764126,15.18126297,3.361915827,2.382653236
10.81764126,17.4305172,4.615755081,3.952344894
10.82764126,18.22971916,5.462814331,4.708476543
10.83764126,18.90449524,6.309873104,5.660820007
10.84764126,20.21576118,7.094718933,6.598806858
10.85764126,22.17309189,7.702496052,7.651648521
10.86764126,25.45604324,9.678967476,10.45125103
10.87764126,27.16930389,10.40638542,11.56152058
10.88764126,29.82055283,10.11446095,12.16929817
10.89764126,32.00759125,9.12861824,11.82951736
10.90764126,32.45265579,7.984848976,10.47039413
10.91764126,31.60559845,6.735795975,8.623134613
10.92764126,30.2943306,5.917450428,7.670791149
10.93764126,29.06920624,3.816552162,9.087342262
10.94764126,27.36551666,2.495713949,8.828917503
10.95764126,24.45105743,1.217946768,7.508079052
10.96764126,20.67996979,-0.011964113,6.043671608
10.97764126,16.44945908,-0.997807026,5.474180222
10.98764126,12.55872917,-1.911865234,5.837889194
10.99764126,12.55872917,-1.911865234,5.837889194
11.00764126,12.55872917,-1.911865234,5.837889194
11.01764126,12.55872917,-1.911865234,5.837889194
11.02764126,12.55872917,-1.911865234,5.837889194
11.02764126,2.202593327,-4.869394302,9.742975235
11.04764126,2.00638175,-3.960121393,5.689534187
11.05764126,2.288734913,-3.328416348,3.507279873
11.06764126,2.288734913,-3.328416348,3.507279873
11.07764126,2.657229662,-2.222932339,3.162713289
11.08764126,1.345962763,-1.797009826,4.564907551
11.09764126,-0.285942316,-1.304088354,5.943173409
11.10764126,-1.731207132,-1.203589797,6.684948444
11.11764126,-2.965903759,-1.093519926,6.297310829
11.12764126,-4.688735962,-0.35174492,2.401795626
11.13764126,-4.540380955,-0.021535404,0.071186475
11.14764126,-4.18145752,-0.007178468,-1.785643935
11.15764126,-3.640679598,0.279960245,-2.479562521
11.16764126,-2.812762976,0.801595569,-2.651845694
11.17764126,-2.161915302,1.064806104,-2.843271494
11.18764126,-2.281556368,1.146162033,-3.063411236
11.19764126,-4.554738045,1.241874933,-2.728415966
11.20764126,-6.215356827,0.935593665,-2.393420935
11.21764126,-8.029116631,0.586241543,-2.17806673
11.22764126,-9.397810936,0.332602352,-2.010569334
11.23764126,-9.708877563,-0.088534437,-2.087139606
11.24764126,-8.981459618,-1.002592683,-2.340778828
11.25764126,-8.981459618,-1.002592683,-2.340778828
11.26764126,-8.981459618,-1.002592683,-2.340778828
11.27764126,-8.981459618,-1.002592683,-2.340778828
11.28764126,-4.554738045,-3.869194269,-0.555733085
11.29764126,-3.894318819,-4.400400639,-0.493519664
11.30764126,-4.047459602,-4.807180882,0.071186475
11.31764126,-5.564508915,-5.261816978,0.92303133
11.32764126,-6.009573936,-5.601597786,1.928016901
11.33764126,-5.564508915,-6.137589931,3.732205153
11.34764126,-4.669593334,-6.932007313,6.584449768
11.35764126,-3.71724987,-7.89870739,10.69053364
11.36764126,-2.094916344,-7.793423176,14.71047497
11.37764126,0.809970438,-7.353144169,16.11266899
11.38764126,6.375676155,-6.893722057,13.97348595
11.39764126,8.361719131,-6.893722057,14.76790333
11.40764126,10.76411247,-6.884150982,16.86880112
11.41764126,13.64507103,-7.91306448,19.63490486
11.42764126,16.39203072,-9.736394882,24.24826622
11.43764126,19.98605156,-11.04766178,30.36432076
11.44764126,19.98605156,-11.04766178,30.36432076
11.45764126,19.98605156,-11.04766178,30.36432076
11.46764126,19.98605156,-11.04766178,30.36432076
11.47764126,19.98605156,-11.04766178,30.36432076
11.47764126,63.63592148,-25.37109756,51.39244843
11.49764126,84.89854431,-39.4935379,50.08118057
11.50764126,89.7416153,-46.58586502,46.93222427
11.51764126,84.38169098,-64.13961029,48.69812775
11.52764126,78.39963531,-76.35257721,50.43531799
11.53764126,78.39963531,-76.35257721,50.43531799
11.54764126,73.19763947,-109.1629639,42.46243286
11.55764126,73.70491791,-124.7210922,30.12025261
11.56764126,74.04948425,-137.1015625,13.41356564
11.57764126,57.74000549,-144.102951,-18.58804512
11.58764126,37.90350723,-127.8030472,-33.0550499
11.59764126,37.90350723,-127.8030472,-33.0550499
11.60764126,37.90350723,-127.8030472,-33.0550499
11.61764126,16.664814,-71.85407257,-29.58545685
11.62764126,15.18604851,-63.40740585,-26.08715057
11.63764126,10.82632637,-53.09912872,-26.26421928
11.64764126,10.82632637,-53.09912872,-26.26421928
11.65764126,10.82632637,-53.09912872,-26.26421928
11.66764126,-9.101100922,-22.96870422,-20.48316002
11.67764126,-13.52303696,-16.71386528,-16.60678673
11.68764126,-13.53739452,-13.75155163,-16.65942955
11.69764126,-14.08774376,-11.94736385,-17.13320923
11.70764126,-14.08774376,-11.94736385,-17.13320923
11.71764126,-9.536594391,-4.213760853,-12.47677517
11.72764126,-4.583451748,-2.323430777,-9.002396584
11.73764126,-0.826720238,-0.404387027,-7.332206726
11.74764126,1.063609719,1.706082582,-7.293921471
11.75764126,1.834098577,3.749552965,-8.097909927
11.76764126,2.322234392,4.98903513,-8.892327309
11.77764126,2.322234392,4.98903513,-8.892327309
11.78764126,2.322234392,4.98903513,-8.892327309
11.79764126,5.638686657,3.6299119,-4.680959225
11.80764126,4.882554531,4.577469826,-2.661417007
11.81764126,5.050052166,5.257031441,-1.3310076
11.82764126,6.753741741,5.572884083,-0.412163705
11.83764126,11.31924725,6.084948063,1.071386337
11.84764126,13.09472179,5.807380676,1.918445587
11.85764126,13.45843124,5.352744102,3.258426189
11.86764126,13.32921886,5.577669621,5.076971531
11.87764126,13.42971706,6.448657036,7.321439266
11.88764126,14.53998661,8.090133667,9.096913338
11.89764126,15.71247005,10.79402256,8.34556675
11.90764126,16.2771759,10.75095177,7.139584541
11.91764126,16.2771759,10.75095177,7.139584541
11.92764126,16.2771759,10.75095177,7.139584541
11.93764126,13.62592888,10.23888779,4.28255415
11.94764126,12.20459175,12.62213898,5.311468124
11.95764126,10.17069244,14.75653744,6.086742401
11.96764126,9.189635277,16.03430367,6.034100533
11.97764126,10.37647533,15.41217041,4.34476757
11.98764126,12.12802124,14.66082478,2.48793745
11.99764126,13.1521492,13.95254898,0.564107955
12.00764126,13.95613766,13.8233366,-0.684945464
12.01764126,15.03769398,13.62712479,-0.77108711
12.02764126,15.03769398,13.62712479,-0.77108711
12.03764126,15.03769398,13.62712479,-0.77108711
12.04764126,9.625128746,12.73220921,5.005186558
12.05764126,7.56730175,11.9090786,5.1296134
12.06764126,6.165107727,10.88973618,4.708476543
12.07764126,5.418546677,8.425128937,4.674977303
12.08764126,4.016352654,8.908478737,6.675376892
12.09764126,4.016352654,8.908478737,6.675376892
12.10764126,4.016352654,8.908478737,6.675376892
12.11764126,7.490731239,3.582055569,15.88774395
12.12764126,7.490731239,3.582055569,15.88774395
12.13764126,7.457231998,2.385644197,15.57667732
12.14764126,7.481160164,3.266202927,13.74377537
12.15764126,7.481160164,3.266202927,13.74377537
12.16764126,7.481160164,3.266202927,13.74377537
12.17764126,7.481160164,3.266202927,13.74377537
12.18764126,7.481160164,3.266202927,13.74377537
12.19764126,-0.587437987,2.304288149,3.789632797
12.20764126,-1.568495274,2.23728919,2.856431961
12.21764126,-2.185843468,2.423929453,2.286940336
12.22764126,-2.185843468,2.423929453,2.286940336
12.23764126,-2.185843468,2.423929453,2.286940336
12.24764126,-2.185843468,2.423929453,2.286940336
12.25764126,-1.812563181,2.443071842,-2.1302104
12.26764126,-1.400997639,1.040877819,-1.412363529
12.27764126,-1.692921996,-0.126819596,-0.517447889
12.28764126,-3.372683525,-1.557727575,1.14795661
12.29764126,-3.688536167,-2.78285265,1.760519266
12.30764126,-4.444668293,-3.802195072,2.215155602
12.31764126,-5.449653625,-4.285545349,2.330011129
12.32764126,-6.507281303,-4.591826439,1.832303882
12.33764126,-7.009773731,-4.835894585,0.631106973
12.34764126,-6.100501537,-5.974878311,-3.934398651
12.35764126,-4.7844491,-6.549155712,-6.757929325
12.36764126,-3.406183004,-8.118846893,-6.834499836
12.37764126,-3.367897987,-10.48295593,-7.011568546
12.38764126,-2.807977438,-10.54038334,-5.480162144
12.39764126,-2.793620348,-8.965906143,-1.364507079
12.40764126,-3.200400352,-7.534998417,3.076571703
12.41764126,-3.200400352,-7.534998417,3.076571703
12.42764126,-3.200400352,-7.534998417,3.076571703
12.43764126,-3.200400352,-7.534998417,3.076571703
12.44764126,2.10209465,-8.501698494,9.451051712
12.45764126,4.035495281,-8.769695282,8.838488579
12.46764126,4.250849247,-10.40638542,12.64786243
12.47764126,4.250849247,-10.40638542,12.64786243
12.48764126,4.250849247,-10.40638542,12.64786243
12.49764126,11.46760273,-10.38724327,42.32365036
12.50764126,15.15254974,-10.15753174,41.88815689
12.51764126,22.6133709,-11.60279655,36.8201561
12.52764126,34.17548752,-13.85204983,32.09672546
12.53764126,47.53701019,-15.14417458,31.59423256
12.54764126,68.14399719,-19.20240211,42.66821671
12.55764126,74.2696228,-23.01656151,46.84129715
12.56764126,78.16035461,-28.0606308,45.97988129
12.57764126,79.95018768,-33.94218826,40.37589264
12.58764126,78.75377655,-38.85226059,34.91068268
12.59764126,74.41798401,-43.71447754,32.8672142
12.60764126,66.08617401,-67.11149597,33.79562759
12.61764126,63.83691788,-82.84669495,29.03391266
12.62764126,63.79384995,-98.02676392,16.92144394
12.63764126,63.61199188,-108.7896805,-0.795015335
12.64764126,58.19942856,-110.2062302,-20.10988045
12.65764126,47.16851807,-100.9029388,-36.43850327
12.66764126,34.41955566,-85.76594543,-45.61258316
12.67764126,16.13360596,-56.46821976,-40.42972946
12.68764126,16.13360596,-56.46821976,-40.42972946
12.69764126,16.13360596,-56.46821976,-40.42972946
12.70764126,-0.003589234,-35.89473343,-22.90948296
12.71764126,-6.153143406,-29.6925354,-20.6697998
12.72764126,-6.153143406,-29.6925354,-20.6697998
12.73764126,-6.153143406,-29.6925354,-20.6697998
12.74764126,-8.775676727,-15.64666748,-13.54876041
12.75764126,-8.134400368,-12.80877972,-11.98863983
12.76764126,-7.378268719,-10.69352436,-10.09352398
12.77764126,-5.58843708,-7.951349735,-5.88694191
12.78764126,-2.760120869,-6.458228111,-1.220937729
12.79764126,2.681157827,-4.764110088,4.220340729
12.80764126,4.159922123,-4.390829563,4.651049137
12.81764126,4.916054249,-4.031906128,3.698705673
12.82764126,5.385047436,-3.452843189,2.219941139
12.83764126,5.79661274,-2.380858421,0.061615184
12.84764126,6.107679844,-1.500299811,-2.560918331
12.85764126,6.839883327,-0.940379322,-4.446462631
12.86764126,9.02692318,0.002392823,-5.154737949
12.87764126,10.8741827,-0.131605253,-4.326821327
12.88764126,13.42493153,-0.30388847,-2.919841766
12.89764126,16.04267883,0.031106694,-1.555932879
12.90764126,18.66999817,0.313459754,-0.479162723
12.91764126,21.0580349,0.413958311,0.123828575
12.92764126,24.73341179,1.060020447,-0.316450804
12.93764126,25.52304268,0.95952189,-1.359721422
12.94764126,25.52304268,0.95952189,-1.359721422
12.95764126,25.52304268,0.95952189,-1.359721422
12.96764126,27.55694199,2.78285265,-1.790429592
12.97764126,29.25106049,3.495913982,-1.881356835
12.98764126,31.44767189,4.065405846,-1.986641049
12.99764126,31.44767189,4.065405846,-1.986641049
13.00764126,31.44767189,4.065405846,-1.986641049
13.01764126,37.34837341,3.945764542,-0.661017239
13.02764126,35.32404327,3.634697676,1.588235974
13.03764126,32.48137283,3.634697676,4.35912466
13.04764126,29.49991417,3.065205812,6.866802692
13.05764126,29.49991417,3.065205812,6.866802692
13.06764126,22.03909302,-0.921236694,9.283554077
13.07764126,19.61755562,-2.538784742,8.412566185
13.08764126,19.61755562,-2.538784742,8.412566185
13.09764126,14.92762375,-5.19481802,6.546164513
13.10764126,12.5683012,-6.314659119,5.919245243
13.11764126,9.859625816,-6.893722057,5.794818401
13.12764126,4.877768993,-6.999006271,6.541378975
13.13764126,3.480360508,-7.137789726,7.737790108
13.14764126,2.499303341,-7.472784996,8.766703606
13.15764126,1.546959877,-7.554141045,9.211769104
13.16764126,0.881755173,-7.190432072,8.871988297
13.17764126,1.020538807,-6.75972414,7.704290867
13.18764126,1.49431777,-6.281159401,4.584050179
13.19764126,0.853041291,-6.223731518,3.148356438
13.20764126,-0.400797784,-6.137589931,2.014158487
13.21764126,-1.841277003,-5.936593056,1.81794703
13.22764126,-2.88454771,-6.051448345,2.41136694
13.23764126,-3.54018116,-6.171089649,2.727219582
13.24764126,-4.061816216,-6.032305717,2.870789051
13.25764126,-4.406383038,-5.491528034,3.923630953
13.26764126,-4.411168575,-5.204389095,3.966701746
13.27764126,-4.6935215,-4.778466702,3.062214851
13.28764126,-5.167300701,-4.266402721,1.468594909
13.29764126,-5.688935757,-4.165904045,-0.196809664
13.30764126,-6.296712875,-4.371686935,-1.737787485
13.31764126,-6.296712875,-4.371686935,-1.737787485
13.32764126,-6.296712875,-4.371686935,-1.737787485
13.33764126,-6.296712875,-4.371686935,-1.737787485
13.34764126,-11.77149105,-5.247459888,-5.963512421
13.35764126,-11.98205948,-6.472585201,-4.89631319
13.36764126,-11.96770287,-8.257631302,-3.613760471
13.37764126,-11.96770287,-8.257631302,-3.613760471
13.38764126,-11.96770287,-8.257631302,-3.613760471
13.39764126,-14.10210037,-13.39262867,-1.527219057
13.40764126,-12.53240871,-14.8522501,-1.986641049
13.41764126,-10.0582304,-16.98664856,-1.345364571
13.42764126,-7.430910587,-19.07318878,0.26739794
13.43764126,-5.95214653,-20.66202354,2.899502754
13.44764126,-4.70787859,-22.99741936,11.26002502
13.45764126,-3.62153697,-24.67717934,15.24646759
13.46764126,-2.128415823,-25.97409058,18.44327927
13.47764126,-0.563509762,-27.00300407,20.12782669
13.48764126,1.006181955,-28.63969421,21.13281059
13.49764126,3.001796007,-30.32902718,23.64048958
13.50764126,3.001796007,-30.32902718,23.64048958
13.51764126,3.001796007,-30.32902718,23.64048958
13.52764126,3.001796007,-30.32902718,23.64048958
13.53764126,43.6845665,-39.47917938,36.26980591
13.54764126,51.46602631,-40.67559052,42.00779724
13.55764126,62.11408615,-43.87718964,45.14239502
13.56764126,74.98747253,-48.04548645,45.17110825
13.57764126,98.96355438,-51.30929565,32.24986649
13.58764126,104.2469101,-51.72086334,25.24846649
13.59764126,104.8451157,-52.91727448,19.69711685
13.60764126,99.49475861,-54.23810959,18.56291962
13.61764126,90.6078186,-58.07619858,22.06601143
13.62764126,80.38568115,-64.7665329,26.67458916
13.63764126,66.01917267,-81.61199951,28.05285454
13.64764126,64.99504852,-93.24590302,21.38644981
13.65764126,65.91867828,-101.056076,10.16411209
13.66764126,67.53622437,-107.6506958,-4.743172646
13.67764126,67.53622437,-107.6506958,-4.743172646
13.68764126,54.52405167,-115.9442215,-31.87778091
13.69764126,35.07997513,-100.7976532,-36.92663574
13.70764126,4.064209461,-58.16233826,-24.51267242
13.71764126,3.968496323,-55.65466309,-16.21436501
13.72764126,3.50907445,-57.40620804,-10.53858948
13.73764126,-3.238685369,-52.12285614,-8.432905197
13.74764126,-11.46520996,-44.54718018,-9.380462646
13.75764126,-18.56710815,-38.34976959,-10.81615639
13.76764126,-27.73161888,-22.86820602,-3.44147706
13.77764126,-26.67877579,-15.96730518,3.311068296
13.78764126,-26.67877579,-15.96730518,3.311068296
13.79764126,-15.24586964,-7.92742157,9.484550476
13.80764126,-10.72821999,-4.496113777,8.211568832
13.81764126,-7.933403492,-1.873580098,5.617749214
13.82764126,-3.33439827,0.232103795,0.755533755
13.83764126,-0.99900347,0.643669307,0.214755833
13.84764126,1.168893814,0.595812857,0.994816005
13.85764126,1.838884234,1.217946768,1.837089539
13.86764126,1.475175142,2.471785784,2.449652195
13.87764126,1.197607756,3.18006134,2.224726915
13.88764126,0.963111103,3.227917671,1.157527924
13.89764126,0.963111103,3.227917671,1.157527924
13.90764126,0.963111103,3.227917671,1.157527924
13.91764126,2.11645174,3.160918713,-0.823729217
13.92764126,2.939582586,3.505485058,-0.948155999
13.93764126,4.11685133,3.93140769,-1.072582722
13.94764126,5.337191105,4.271188259,-1.47457695
13.95764126,5.337191105,4.271188259,-1.47457695
13.96764126,7.801798344,4.453042984,-3.522833109
13.97764126,8.117650986,4.261617184,-4.006183147
13.98764126,8.117650986,4.261617184,-4.006183147
13.99764126,8.644071579,3.510270834,-3.513261795
14.00764126,9.26142025,2.931207657,-2.819343328
14.01764126,9.811769485,2.433500528,-2.158924341
14.02764126,9.811769485,2.433500528,-2.158924341
14.03764126,9.811769485,2.433500528,-2.158924341
14.04764126,9.811769485,2.433500528,-2.158924341
14.05764126,12.17109203,0.404387027,-5.087738991
14.06764126,11.19003487,-0.227318153,-6.41336298
14.07764126,10.19462109,-1.122233868,-7.308278561
14.08764126,8.074580193,-3.438486099,-7.715058327
14.09764126,7.452445984,-4.85982275,-6.738786697
14.10764126,7.165307522,-6.295516491,-5.049454212
14.11764126,7.02652359,-7.712067604,-3.082553864
14.12764126,7.02652359,-7.712067604,-3.082553864
14.13764126,7.02652359,-7.712067604,-3.082553864
14.14764126,8.730213165,-9.879964828,2.789433002
14.15764126,9.294919968,-11.18166065,2.703291416
14.16764126,8.615358353,-11.35872936,2.181656122
14.17764126,7.442874908,-11.35394382,1.841875196
14.18764126,6.241677761,-11.43529987,2.100300074
14.19764126,5.399404526,-12.18185997,2.669791937
14.20764126,5.121836662,-13.18206024,3.904488325
14.21764126,6.217749596,-14.45025635,7.192226887
14.22764126,7.734799385,-14.71346664,8.340781212
14.23764126,9.615557671,-14.64168167,8.948558807
14.24764126,11.50110245,-14.47418404,8.94377327
14.25764126,12.98943806,-14.13440323,8.221140862
14.26764126,13.69292736,-13.51705551,7.359724045
14.27764126,14.25763416,-12.23450184,6.718447685
14.28764126,14.25763416,-12.23450184,6.718447685
14.29764126,14.25763416,-12.23450184,6.718447685
14.30764126,14.25763416,-12.23450184,6.718447685
14.31764126,14.25763416,-12.23450184,6.718447685
14.32764126,18.18664932,-10.40159988,11.22173977
14.33764126,20.0291214,-9.195617676,11.16431236
14.34764126,20.0291214,-9.195617676,11.16431236
14.35764126,25.62354088,-4.802394867,9.91047287
14.36764126,25.29811668,-3.046063185,9.594620705
14.37764126,24.41277313,-1.399801254,10.74796104
14.38764126,23.95335197,-0.126819596,13.246068
14.39764126,24.2835598,0.86380899,16.95015717
14.40764126,26.9683075,3.002992392,23.70270348
14.41764126,29.31805992,3.964907169,24.97568512
14.42764126,31.76352501,4.620540619,24.67418861
14.43764126,31.76352501,4.620540619,24.67418861
14.44764126,34.57269669,3.639483213,21.38166428
14.45764126,34.59662628,2.256431818,19.09891129
14.46764126,33.72563934,0.696311414,16.76351738
14.47764126,33.72563934,0.696311414,16.76351738
14.48764126,33.31407166,-6.223731518,13.44227982
14.49764126,33.31407166,-6.223731518,13.44227982
14.50764126,33.80699539,-10.47338486,11.56630611
14.51764126,34.71626663,-12.78006554,11.22173977
14.52764126,36.46302795,-15.33081436,11.14995575
14.53764126,41.40660095,-21.51386833,11.92044449
14.54764126,43.61756897,-25.67259407,12.71007538
14.55764126,44.82833481,-30.13281631,13.74856091
14.56764126,44.82833481,-30.13281631,13.74856091
14.57764126,41.41138458,-37.62713623,14.44726467
14.58764126,36.8075943,-39.40739441,13.03549957
14.59764126,31.18446159,-40.29752731,11.08295631
14.60764126,31.18446159,-40.29752731,11.08295631
14.61764126,31.18446159,-40.29752731,11.08295631
14.62764126,11.23310566,-38.45026779,4.378267288
14.63764126,6.887740135,-35.36352539,3.110071182
14.64764126,3.542573929,-32.16671371,1.81794703
14.65764126,0.987039328,-29.14218712,0.262612283
14.66764126,-1.788634896,-23.40419769,-1.307079315
14.67764126,-2.420340061,-21.97807693,-1.933998942
14.68764126,-3.018545866,-21.14058876,-2.259422779
14.69764126,-3.530609846,-20.28395844,-1.287936807
14.70764126,-4.248456478,-19.31725693,-0.450448871
14.71764126,-4.966303349,-18.07298851,0.49232325
14.72764126,-4.966303349,-18.07298851,0.49232325
14.73764126,-6.602993965,-16.04866219,3.445066452
14.74764126,-8.823533058,-14.74217987,3.722633839
14.75764126,-11.5896368,-12.3493576,3.942773581
14.76764126,-13.57089329,-10.54038334,4.019343853
14.77764126,-14.15474224,-9.865608215,3.473780155
14.78764126,-14.14517117,-9.482755661,2.420938253
14.79764126,-14.14517117,-9.482755661,2.420938253
14.80764126,-14.14517117,-9.482755661,2.420938253
14.81764126,-14.14517117,-9.482755661,2.420938253
14.82764126,-14.55673695,-7.759923935,0.616750062
14.83764126,-14.55673695,-7.759923935,0.616750062
14.84764126,-15.04965782,-10.40638542,7.034300327
14.85764126,-15.04965782,-10.40638542,7.034300327
14.86764126,-15.04965782,-10.40638542,7.034300327
14.87764126,-9.120243073,-18.75733757,19.3142662
14.88764126,-6.937989235,-19.8532486,18.75434494
14.89764126,-5.267798901,-19.84367752,17.32822418
14.90764126,-3.516252756,-20.30788612,16.21795273
14.91764126,-1.262213945,-21.17408752,16.07917023
14.92764126,6.715456963,-20.6811657,20.75953102
14.93764126,13.73121262,-20.57109642,24.22433853
14.94764126,22.74736786,-20.06860352,26.57409096
14.95764126,32.72065353,-19.54696846,27.32543564
14.96764126,42.0526619,-20.21217346,27.68914604
14.97764126,48.59942245,-20.03989029,26.5166626
14.98764126,48.59942245,-20.03989029,26.5166626
14.99764126,48.59942245,-20.03989029,26.5166626
15.00764126,75.87281799,-22.04028893,32.13979721
15.01764126,75.87281799,-22.04028893,32.13979721
15.02764126,90.41160583,-28.75933456,39.13640976
15.03764126,94.98189545,-35.26781464,40.42374802
15.04764126,95.64710236,-39.91467285,37.39443588
15.05764126,92.80921173,-49.95017242,28.27778053
15.06764126,90.50253296,-59.13382721,25.13839722
15.07764126,86.22416687,-69.73403168,22.15693855
15.08764126,80.54839325,-80.40122986,17.62014771
15.09764126,75.01618958,-90.03473663,11.74337578
15.10764126,70.22575378,-100.5583725,4.205984116
15.11764126,48.93920517,-113.2020493,-17.04706764
15.12764126,30.40918732,-102.9511948,-25.63730049
15.13764126,30.40918732,-102.9511948,-25.63730049
15.14764126,30.40918732,-102.9511948,-25.63730049
15.15764126,6.404389858,-67.19285583,-33.13640594
15.16764126,4.179064751,-56.88935852,-28.68097115
15.17764126,0.585045159,-47.83013153,-23.5172596
15.18764126,-10.70907784,-32.20978546,-16.20479393
15.19764126,-15.80100441,-26.19422913,-14.37189102
15.20764126,-19.0121727,-20.33181381,-12.63470173
15.21764126,-19.58166504,-16.44586945,-11.13200951
15.22764126,-18.05025673,-13.65105343,-9.744172096
15.23764126,-15.30808258,-10.81316566,-8.83968544
15.24764126,-15.30808258,-10.81316566,-8.83968544
15.25764126,-4.238885403,-4.945964336,-5.681159019
15.26764126,-0.817148924,-4.046263218,-4.623531342
15.27764126,1.81495595,-3.706482172,-3.829114437
15.28764126,3.164507866,-3.328416348,-3.369692564
15.29764126,3.552145243,-2.816352367,-2.953341246
15.30764126,3.844069481,-1.548156261,-2.733201742
15.31764126,4.442275047,-0.849452019,-3.479762316
15.32764126,5.528616905,-0.509671211,-4.642673969
15.33764126,6.658029079,-0.619741082,-5.791228771
15.34764126,7.88793993,-0.643669307,-6.667002201
15.35764126,9.237491608,-0.882951558,-7.183851719
15.36764126,10.78325558,-1.251446247,-6.997211456
15.37764126,10.78325558,-1.251446247,-6.997211456
15.38764126,10.78325558,-1.251446247,-6.997211456
15.39764126,18.76092529,1.203589797,-4.786243439
15.40764126,20.82353973,1.715653777,-5.848656654
15.41764126,22.55594254,2.103291035,-7.528418064
15.42764126,23.33121681,2.524427891,-9.126823425
15.43764126,23.33121681,2.524427891,-9.126823425
15.44764126,23.33121681,2.524427891,-9.126823425
15.45764126,22.49372864,4.902893543,-4.786243439
15.46764126,22.49372864,4.902893543,-4.786243439
15.46764126,23.6183567,5.276174068,-1.579861164
15.48764126,27.35116005,6.769295216,2.085943222
15.49764126,28.94477844,6.726224422,1.937588096
15.50764126,28.35614395,5.611168861,-0.909870803
15.51764126,26.30310249,4.515256405,-2.709273338
15.52764126,23.57528496,3.036491871,-4.221537113
15.53764126,20.9575367,2.002792597,-5.121238708
15.54764126,18.53600121,0.969093144,-5.604588985
15.55764126,16.24846268,-0.212961212,-5.843871117
15.56764126,16.24846268,-0.212961212,-5.843871117
15.57764126,11.34796143,-3.912265062,-5.480162144
15.58764126,9.74477005,-4.395615101,-4.872385025
15.59764126,8.026723862,-4.84546566,-4.259822369
15.60764126,6.117250919,-5.170889854,-3.427120209
15.61764126,4.179064751,-5.199603558,-2.326421738
15.62764126,2.34137702,-4.993820667,-0.795015335
15.63764126,-0.319441825,-4.721039295,3.301496983
15.64764126,-1.209571838,-4.357329845,4.775475979
15.65764126,-2.051845312,-4.615755081,5.435894966
15.66764126,-3.253042459,-4.912465096,5.282754421
15.67764126,-4.468596458,-4.386044025,5.038686275
15.68764126,-5.535795212,-3.677768469,5.053043365
15.69764126,-5.93778944,-3.615555048,4.627120972
15.70764126,-6.11485815,-3.318845034,3.674777269
15.71764126,-5.990431309,-3.103491068,2.435295343
15.72764126,-5.454439163,-3.127419233,1.19581306
15.73764126,-5.014159679,-3.175275564,0.090329058
15.74764126,-4.856233597,-3.223132133,-0.637089014
15.75764126,-4.856233597,-3.223132133,-0.637089014
15.76764126,-4.856233597,-3.223132133,-0.637089014
15.77764126,-4.856233597,-3.223132133,-0.637089014
15.78764126,-7.383054256,-5.424529076,0.320040017
15.79764126,-8.579465866,-6.017949104,0.611964405
15.80764126,-9.51745224,-6.802794933,0.92303133
15.81764126,-9.555737495,-8.248059273,1.301097274
15.82764126,-6.890132904,-13.00020504,2.52143693
15.83764126,-6.890132904,-13.00020504,2.52143693
15.84764126,-6.890132904,-13.00020504,2.52143693
15.85764126,-4.35852623,-16.91486359,8.063214302
15.86764126,-3.33439827,-18.41755676,8.771489143
15.87764126,-2.544766903,-19.87717819,8.493922234
15.88764126,-2.544766903,-19.87717819,8.493922234
15.89764126,-2.645265341,-21.10230255,11.94437218
15.90764126,-3.004188776,-21.0209465,16.04088402
15.91764126,-2.257628202,-20.68595123,21.45823479
15.92764126,0.273978204,-22.20300102,26.70330238
15.93764126,4.078566074,-24.29432869,30.546175
15.94764126,10.0462656,-25.63909531,33.07778168
15.95764126,28.83470917,-29.72125053,37.41836166
15.96764126,28.83470917,-29.72125053,37.41836166
15.97764126,28.83470917,-29.72125053,37.41836166
15.98764126,28.83470917,-29.72125053,37.41836166
15.99764126,69.79983521,-34.01876068,48.48277283
16.00764126,78.81598663,-33.87997437,45.38167572
16.01764126,78.81598663,-33.87997437,45.38167572
16.02764126,78.81598663,-33.87997437,45.38167572
16.03764126,85.54460907,-41.89114761,22.93700027
16.04764126,80.95516968,-47.7009201,24.35833549
16.05764126,75.93502808,-54.6783905,26.5788765
16.06764126,71.14938354,-64.69474792,26.86122894
16.07764126,65.93302917,-75.05088043,26.18645287
16.08764126,65.93302917,-75.05088043,26.18645287
16.08764126,57.26144409,-102.9511948,18.25185204
16.10764126,40.06183243,-127.8317642,6.297310829
16.11764126,24.75733948,-132.6030579,4.124628067
16.12764126,5.79661274,-124.1659622,3.014358282
16.13764126,-8.033902168,-102.128067,1.928016901
16.14764126,-6.626922131,-68.13083649,2.583650351
16.15764126,-2.027917147,-60.0622406,3.870988846
16.16764126,-1.874776483,-50.96951675,4.785047054
16.17764126,-3.726821184,-41.79543304,3.071786165
16.18764126,-5.430510998,-34.34418488,-1.996212244
16.19764126,-8.019545555,-27.99363136,-7.877770424
16.20764126,-8.019545555,-27.99363136,-7.877770424
16.21764126,-8.019545555,-27.99363136,-7.877770424
16.22764126,-18.97867203,-8.803194046,-1.685145378
16.23764126,-16.60499191,-7.812565804,2.339582443
16.24764126,-12.81954765,-7.544569969,4.8376894
16.25764126,-8.646464348,-7.233502865,6.110671043
16.26764126,-4.679164886,-6.683153629,6.665805817
16.27764126,-4.679164886,-6.683153629,6.665805817
16.28764126,1.513460279,-5.132604599,0.26739794
16.29764126,1.700100541,-4.587040901,-3.283550978
16.30764126,1.465603828,-4.285545349,-6.71964407
16.31764126,1.537388563,-4.352544308,-9.275178909
16.32764126,1.570888042,-4.400400639,-10.13180923
16.33764126,0.781256616,-3.64426899,-7.877770424
16.34764126,0.982253671,-3.830909014,-6.083153248
16.35764126,1.159322619,-4.228117466,-4.408177376
16.36764126,1.369890928,-4.074976921,-3.221337557
16.37764126,1.810170293,-3.720839262,-2.761915445
16.38764126,2.470589399,-4.223331928,-3.053839922
16.39764126,2.925225735,-4.677968502,-3.90568471
16.40764126,3.652643681,-3.792623997,-6.054439545
16.41764126,4.045066833,-3.730410576,-7.360920429
16.42764126,4.442275047,-4.185046673,-8.44726181
16.43764126,4.442275047,-4.185046673,-8.44726181
16.44764126,4.868197441,-5.103890896,-7.834699631
16.45764126,5.064409256,-5.606383324,-6.891927242
16.46764126,5.064409256,-5.606383324,-6.891927242
16.47764126,5.064409256,-5.606383324,-6.891927242
16.48764126,7.380661488,-7.726424217,-2.335993052
16.49764126,8.711071014,-8.43948555,-1.37886405
16.50764126,9.701699257,-9.320044518,-0.311665148
16.51764126,10.28076267,-9.951749802,0.908674419
16.52764126,10.24247742,-10.15753174,2.133799553
16.53764126,8.337790489,-10.16231823,4.091128349
16.54764126,6.854240417,-9.535398483,4.852046013
16.55764126,5.533402443,-8.807980537,5.67039156
16.56764126,4.839483738,-8.123632431,6.287739754
16.57764126,4.916054249,-7.716853142,6.909873486
16.58764126,5.940182209,-7.458428383,7.646862984
16.59764126,5.940182209,-7.458428383,7.646862984
16.60764126,5.940182209,-7.458428383,7.646862984
16.61764126,5.940182209,-7.458428383,7.646862984
16.62764126,17.83729553,-4.744967461,7.512865067
16.63764126,20.02433586,-4.127619267,6.785446644
16.64764126,21.68974113,-3.347558975,6.091528416
16.65764126,23.10150528,-2.78285265,5.569892883
16.66764126,23.10150528,-2.78285265,5.569892883
16.67764126,23.10150528,-2.78285265,5.569892883
16.68764126,33.18486023,-1.916650891,4.191627026
16.69764126,35.86003494,-1.39022994,3.483351469
16.70764126,38.25286102,-0.777667344,2.143370867
16.71764126,40.37290192,-0.662811875,0.401396006
16.72764126,40.37290192,-0.662811875,0.401396006
16.73764126,40.52125549,-1.270588875,-12.7495575
16.74764126,40.52125549,-1.270588875,-12.7495575
16.75764126,40.80839539,-4.87417984,-18.8368988
16.76764126,41.10031891,-7.094718933,-19.00918198
16.77764126,41.24867249,-9.133403778,-16.93699646
16.78764126,40.75096512,-13.58405399,-10.27537823
16.79764126,40.34418488,-15.45045567,-7.250850677
16.80764126,39.84169388,-18.10648918,-4.101896286
16.81764126,38.54478455,-21.81536484,-1.508076429
16.82764126,36.03710556,-24.19383049,1.425524116
16.83764126,32.31866074,-24.81117821,4.962115765
16.84764126,28.21257591,-24.82074928,8.154141426
16.85764126,21.00060844,-25.62952423,13.03071404
16.86764126,18.64128494,-26.24208641,12.90628719
16.87764126,16.84188271,-26.6680088,11.20738316
16.88764126,14.95155239,-26.23730087,9.39840889
16.89764126,12.79801178,-25.0743885,8.321639061
16.90764126,10.40518951,-24.11725998,8.249854088
16.91764126,10.40518951,-24.11725998,8.249854088
16.92764126,10.40518951,-24.11725998,8.249854088
16.93764126,10.40518951,-24.11725998,8.249854088
16.94764126,-2.472982168,-16.30708694,10.76710415
16.95764126,-3.655036688,-14.96232033,9.527621269
16.96764126,-4.35852623,-13.36391449,7.93878746
16.97764126,-4.478167534,-12.29671574,6.16809845
16.98764126,-4.478167534,-12.29671574,6.16809845
16.99764126,-4.478167534,-12.29671574,6.16809845
17.00764126,-5.626722336,-8.315058708,3.535993576
17.00764126,-5.626722336,-8.315058708,3.535993576
17.02764126,-6.684350014,-6.879364967,2.799004316
17.03764126,-7.962117195,-6.314659119,1.975873351
17.04764126,-10.45065308,-8.889336586,2.722434044
17.05764126,-12.12084293,-10.56431198,4.019343853
17.06764126,-14.27438354,-11.60758305,5.785246849
17.07764126,-15.43729496,-12.53121185,7.957930088
17.08764126,-14.50887966,-14.3066864,10.06361389
17.09764126,-11.75234795,-16.60858154,11.66201973
17.10764126,-8.478966713,-17.93899155,12.7435751
17.11764126,-8.478966713,-17.93899155,12.7435751
17.12764126,-8.478966713,-17.93899155,12.7435751
17.13764126,3.030509949,-18.95833397,11.8343029
17.14764126,2.585444927,-19.6139679,12.72921848
17.15764126,1.269392371,-21.59522438,14.79183102
17.16764126,-0.472582459,-22.85384941,17.14158249
17.17764126,-0.472582459,-22.85384941,17.14158249
17.18764126,-0.472582459,-22.85384941,17.14158249
17.19764126,3.375076294,-26.77329254,16.17966843
17.20764126,7.313662529,-26.17987251,14.8396883
17.21764126,11.70688438,-25.79702187,14.13619804
17.22764126,16.439888,-25.72523689,14.8779726
17.23764126,22.30230331,-28.43391228,21.91287231
17.24764126,23.11107826,-28.26641464,27.8470726
17.25764126,26.98744965,-29.60160828,34.83411407
17.26764126,36.32424545,-33.12862778,40.07918167
17.27764126,49.74797821,-37.39263916,41.58665848
17.28764126,64.34420013,-41.01058578,41.69194412
17.29764126,76.15516663,-45.20759964,42.53421783
17.30764126,84.55397797,-51.52465057,44.9270401
17.31764126,83.54420471,-55.28616714,43.16592407
17.32764126,84.66883087,-60.92365646,39.26083755
17.33764126,89.64112091,-65.6853714,35.35096359
17.34764126,89.64112091,-65.6853714,35.35096359
17.35764126,97.06365204,-75.78308868,32.85285568
17.36764126,97.06365204,-75.78308868,32.85285568
17.37764126,97.06365204,-75.78308868,32.85285568
17.38764126,97.06365204,-75.78308868,32.85285568
17.39764126,73.96813202,-116.2505035,24.91825676
17.40764126,69.79983521,-124.1228867,17.47657776
17.41764126,65.4209671,-128.6931763,5.416752338
17.42764126,59.62076569,-129.0664673,-8.571688652
17.43764126,59.62076569,-129.0664673,-8.571688652
17.44764126,18.34935951,-94.15518188,-32.9306221
17.45764126,3.1405797,-74.99345398,-29.17867661
17.46764126,-7.842476368,-57.98527145,-19.66959953
17.47764126,-13.01097298,-46.52365112,-8.112266541
17.48764126,-13.75274849,-41.20201492,1.459023595
17.49764126,-16.97348785,-33.92783356,3.411566973
17.50764126,-19.79701805,-27.52942467,-2.670988321
17.51764126,-19.56252098,-22.50449753,-8.672187805
17.52764126,-18.40439606,-18.80997849,-10.99801064
17.53764126,-18.18904114,-14.98624802,-9.14596653
17.54764126,-17.87797356,-12.44028473,-4.810171604
17.55764126,-17.77268982,-11.03330517,-0.407378048
17.56764126,-16.14078522,-7.329215527,5.172684193
17.57764126,-13.98245907,-6.21894598,7.230511665
17.58764126,-13.98245907,-6.21894598,7.230511665
17.59764126,-13.98245907,-6.21894598,7.230511665
17.60764126,-4.717449665,-3.582055569,7.024729252
17.61764126,-1.769492388,-3.242274761,5.163113117
17.62764126,-1.769492388,-3.242274761,5.163113117
17.63764126,-1.769492388,-3.242274761,5.163113117
17.64764126,2.255235434,-3.223132133,-1.555932879
17.65764126,0.747757077,-2.902493954,-2.139781713
17.66764126,-0.960718274,-2.615355253,-2.388635159
17.67764126,-2.458625317,-2.376072884,-2.426920414
17.68764126,-3.018545866,-2.194218397,-1.852642894
17.69764126,-2.118844509,-2.443071842,-1.656431437
17.70764126,-0.850648463,-2.801995277,-1.177866936
17.71764126,0.283549488,-3.170490026,-1.168295622
17.72764126,1.403390527,-3.567698479,-1.737787485
17.73764126,2.446661234,-3.845266104,-2.402992249
17.74764126,3.748356581,-3.940979004,-3.518047571
17.75764126,5.322834015,-4.429114819,-6.60478878
17.76764126,5.595615864,-4.036691666,-7.62891674
17.77764126,6.275177479,-4.04147768,-7.762914658
17.78764126,7.021738052,-4.419543266,-7.351349354
17.79764126,7.308876991,-4.888536453,-6.317649841
17.80764126,7.390232563,-5.740381718,-4.671388149
17.81764126,7.390232563,-5.740381718,-4.671388149
17.82764126,7.390232563,-5.740381718,-4.671388149
17.83764126,7.390232563,-5.740381718,-4.671388149
17.84764126,7.390232563,-5.740381718,-4.671388149
17.85764126,8.888139725,-9.253045082,2.861217737
17.86764126,10.34297562,-9.970891953,2.109871387
17.87764126,11.62552929,-11.2008028,1.736590981
17.88764126,11.62552929,-11.2008028,1.736590981
17.89764126,11.62552929,-11.2008028,1.736590981
17.90764126,16.57867241,-17.35992813,6.651448727
17.91764126,17.23430443,-16.81915092,7.957930088
17.91764126,17.23430443,-16.81915092,7.957930088
17.93764126,18.51685715,-14.89532089,9.470193863
17.94764126,20.56511497,-14.03869057,10.81496048
17.95764126,21.158535,-13.42612743,11.81994534
17.96764126,21.31167412,-12.81835079,12.59522057
17.97764126,20.70389748,-11.54536915,12.57129192
17.98764126,19.73719788,-9.707681656,11.82473087
17.99764126,18.71306992,-8.066205025,10.13539886
18.00764126,17.54537201,-7.324429989,8.230711937
18.01764126,15.66939926,-7.180860519,5.818746567
18.02764126,14.85583973,-7.314858913,5.809175014
18.03764126,14.0997076,-6.606583118,6.68016243
18.04764126,13.88913918,-5.52981329,8.020143509
18.05764126,14.85105419,-4.917250633,9.551549911
18.06764126,16.8035965,-4.931607246,10.47996521
18.07764126,16.8035965,-4.931607246,10.47996521
18.08764126,16.8035965,-4.931607246,10.47996521
18.09764126,16.8035965,-4.931607246,10.47996521
18.10764126,26.00160789,-0.165104762,10.45603657
18.11764126,28.37050247,0.595812857,12.05922794
18.12764126,30.64846802,0.897308469,14.06919861
18.13764126,33.61557007,0.457029134,17.03629875
18.14764126,34.09413528,0.39960137,17.10808372
18.15764126,34.42912674,-0.040677983,16.30888176
18.16764126,34.92683411,-0.844666421,14.75833225
18.17764126,35.54418564,-1.801795483,13.10249901
18.18764126,35.86960602,-3.012563705,12.08315659
18.19764126,35.86960602,-3.012563705,12.08315659
18.20764126,35.86960602,-3.012563705,12.08315659
18.21764126,35.86960602,-3.012563705,12.08315659
18.22764126,35.86960602,-3.012563705,12.08315659
18.23764126,34.22813034,-17.94377708,13.9543438
18.24764126,34.07498932,-20.13081741,14.09312725
18.25764126,33.94099426,-22.97348976,13.76291752
18.26764126,33.94099426,-22.97348976,13.76291752
18.27764126,33.94099426,-22.97348976,13.76291752
18.28764126,30.80160904,-31.15215874,9.585049629
18.29764126,30.31347275,-32.92284775,9.020342827
18.30764126,29.65784073,-35.11467361,8.503493309
18.31764126,28.10729027,-36.92843246,7.656434059
18.32764126,25.35554504,-37.92863083,6.440880299
18.33764126,18.34457397,-38.05305862,4.722833633
18.34764126,14.61177158,-37.28735352,3.985844374
18.35764126,10.53918743,-35.23431396,3.909274101
18.36764126,6.839883327,-32.50649643,4.598406792
18.37764126,4.389633179,-29.6925354,5.928816319
18.38764126,3.064009428,-27.48156738,7.249654293
18.39764126,1.369890928,-24.60060883,7.000801086
18.40764126,-0.52043891,-23.2797718,5.105685234
18.41764126,-3.085544825,-21.95893288,3.167499065
18.42764126,-5.76072073,-20.62373924,1.851446509
18.43764126,-8.225327492,-19.02054787,2.138585329
18.44764126,-8.225327492,-19.02054787,2.138585329
18.45764126,-10.34536839,-16.34058571,5.3210392
18.46764126,-10.34536839,-16.34058571,5.3210392
18.47764126,-10.34536839,-16.34058571,5.3210392
18.48764126,-8.885746956,-11.89472103,5.598606586
18.49764126,-9.938589096,-10.07617569,4.80897522
18.50764126,-10.95314598,-8.185846329,4.785047054
18.51764126,-11.3072834,-7.180860519,5.411966801
18.52764126,-11.3072834,-7.180860519,5.411966801
18.53764126,-10.58465099,-7.759923935,10.82931709
18.54764126,-9.952945709,-7.324429989,13.87298775
18.55764126,-8.8474617,-7.822137356,16.61037636
18.56764126,-7.96690321,-8.927620888,18.75434494
18.57764126,-7.11984396,-9.846465111,20.20439529
18.58764126,-6.062216282,-10.90409279,20.73081779
18.59764126,-2.673979282,-12.77049446,19.80718803
18.60764126,-0.013160525,-13.9238348,18.9744854
18.61764126,1.925025821,-14.74696636,17.9455719
18.62764126,2.666800737,-14.8713932,17.58664894
18.63764126,3.432504177,-14.74217987,18.27578163
18.64764126,4.868197441,-15.08674717,19.78326035
18.65764126,4.868197441,-15.08674717,19.78326035
18.66764126,4.868197441,-15.08674717,19.78326035
18.67764126,4.868197441,-15.08674717,19.78326035
18.68764126,34.28556061,-18.06341743,16.10309792
18.69764126,42.55515289,-16.91964912,14.26541042
18.70764126,49.76233673,-15.14896011,15.1028986
18.71764126,49.76233673,-15.14896011,15.1028986
18.72764126,49.76233673,-15.14896011,15.1028986
18.73764126,71.19245911,-17.03928947,15.27996731
18.74764126,74.37969208,-18.50369835,11.32223892
18.75764126,75.63353729,-18.78126526,9.130413055
18.76764126,76.63373566,-18.48933983,10.21196842
18.77764126,78.3709259,-20.35095596,13.39920902
18.78764126,79.34240723,-25.89752007,20.81695938
18.79764126,80.87860107,-32.83670425,21.98465538
18.80764126,82.62535858,-41.93900299,20.4676075
18.81764126,83.20921326,-51.41936493,17.35215187
18.82764126,82.34779358,-62.08657074,14.25105381
18.83764126,79.61997986,-74.08418274,11.39402294
18.84764126,79.61997986,-74.08418274,11.39402294
18.85764126,79.61997986,-74.08418274,11.39402294
18.86764126,79.61997986,-74.08418274,11.39402294
18.87764126,35.1374054,-117.9254761,9.905687332
18.88764126,24.43191528,-122.1511993,1.061815023
18.89764126,24.43191528,-122.1511993,1.061815023
18.90764126,24.43191528,-122.1511993,1.061815023
18.91764126,-7.48833847,-71.84928894,-12.03171062
18.92764126,-10.13479996,-60.94279861,-9.217751503
18.93764126,-12.43669605,-51.03651428,-6.853642464
18.94764126,-13.59482193,-42.6807785,-5.513661385
18.95764126,-13.60439301,-36.42115402,-5.695516109
18.96764126,-13.56610775,-31.59243774,-6.810571671
18.97764126,-14.11167145,-22.60978127,-7.456633568
18.98764126,-13.69532013,-20.01596069,-6.346364021
18.99764126,-13.69532013,-20.01596069,-6.346364021
19.00764126,-13.69532013,-20.01596069,-6.346364021
19.01764126,-12.84826088,-14.60339642,-1.043868899
19.02764126,-12.61376476,-12.82792187,-0.335593373
19.03764126,-11.65184975,-11.21037388,-0.732801914
19.04764126,-11.65184975,-11.21037388,-0.732801914
19.05764126,-11.65184975,-11.21037388,-0.732801914
19.06764126,-5.387440205,-7.984848976,-6.365506649
19.07764126,-4.363312244,-7.424928665,-7.255636692
19.08764126,-3.626322746,-7.094718933,-7.959126472
19.09764126,-3.291327477,-6.697510719,-8.370692253
19.10764126,-3.659822226,-5.802595139,-8.949754715
19.11764126,-3.659822226,-5.802595139,-8.949754715
19.12764126,-3.659822226,-5.802595139,-8.949754715
19.13764126,-3.209971666,-6.673582554,-8.236693382
19.14764126,-2.578266382,-7.568498135,-7.571488857
19.15764126,-1.55892396,-8.678768158,-6.461219311
19.16764126,-1.55892396,-8.678768158,-6.461219311
19.17764126,-1.55892396,-8.678768158,-6.461219311
19.18764126,3.47557497,-11.81336498,-3.814757586
19.19764126,4.533202648,-12.78485107,-4.446462631
19.20764126,5.231906891,-13.93340588,-5.130809784
19.21764126,5.98803854,-15.26860142,-6.006583214
19.22764126,7.500302792,-16.79043579,-6.22193718
19.23764126,7.500302792,-16.79043579,-6.22193718
19.24764126,17.39223099,-18.28355789,-7.097710133
19.25764126,22.2879467,-18.11127472,-8.337192535
19.26764126,28.4375,-19.27418709,-10.37109184
19.27764126,33.48635483,-19.992033,-12.62991619
19.28764126,36.31467438,-18.79562187,-13.54876041
19.29764126,38.61178207,-14.82353592,-11.51964664
19.30764126,38.61178207,-14.82353592,-11.51964664
19.31764126,39.91347885,-10.40159988,-9.715457916
19.32764126,39.43970108,-9.071190834,-11.11765194
19.33764126,38.42035675,-7.841279984,-13.4530468
19.34764126,38.42035675,-7.841279984,-13.4530468
19.35764126,37.56851196,-6.831508636,-16.75992775
19.36764126,37.56851196,-6.831508636,-16.75992775
19.37764126,37.56851196,-6.831508636,-16.75992775
19.38764126,30.6963253,-8.855836868,-5.035097122
19.39764126,27.99243546,-8.315058708,-0.881156921
19.40764126,26.0398922,-7.5924263,2.205584288
19.41764126,24.59941292,-7.841279984,3.77049017
19.42764126,21.48395729,-9.544969559,3.760919094
19.43764126,18.90449524,-9.348757744,3.574278831
19.44764126,15.51625824,-8.114061356,3.780061483
19.45764126,11.64945698,-6.477370739,4.383052826
19.46764126,8.155936241,-5.69252491,5.402395248
19.47764126,5.279763222,-5.649454117,5.866602898
19.48764126,2.886940479,-5.391029358,5.895316601
19.49764126,-0.166301176,-5.257031441,3.827918053
19.50764126,-0.166301176,-5.257031441,3.827918053
19.51764126,-1.391426325,-5.950950146,1.061815023
19.52764126,-1.391426325,-5.950950146,1.061815023
19.53764126,-2.233700037,-6.55394125,0.018544376
19.54764126,-2.482553482,-6.86022234,0.0951147
19.55764126,-3.023331404,-7.200003147,1.176670551
19.56764126,-3.559323788,-7.467999458,2.038086653
19.57764126,-4.24367094,-7.702496052,3.344567776
19.58764126,-4.942375183,-7.668996811,4.48833704
19.59764126,-5.310869694,-7.659425259,5.459823132
19.60764126,-5.674578667,-7.649854183,6.211169243
19.61764126,-7.048058987,-6.95114994,5.842674732
19.62764126,-7.11984396,-7.391428947,5.67039156
19.63764126,-7.354340553,-8.43948555,6.163312912
19.64764126,-8.096115112,-9.276973724,7.651648521
19.65764126,-8.986245155,-10.18146038,9.742975235
19.66764126,-9.474381447,-10.8179512,11.31745243
19.67764126,-9.306883812,-11.40180016,12.55693531
19.68764126,-6.622136593,-13.13420391,13.52363491
19.69764126,-6.622136593,-13.13420391,13.52363491
19.70764126,-6.622136593,-13.13420391,13.52363491
19.71764126,0.259621263,-12.95234871,9.422337532
19.72764126,0.044267219,-13.13420391,8.058428764
19.73764126,-1.745564103,-13.11984634,8.240283012
19.74764126,-4.540380955,-15.11067486,11.79123211
19.75764126,-3.34875536,-15.90987778,13.96870041
19.76764126,-0.965503931,-16.9675045,15.0598278
19.77764126,1.231107235,-18.13041687,14.97847176
19.78764126,2.480160713,-18.47976875,14.70568943
19.79764126,3.09272337,-18.60898209,14.11705494
19.80764126,3.552145243,-19.84367752,14.23191071
19.81764126,3.552145243,-19.84367752,14.23191071
19.82764126,3.552145243,-19.84367752,14.23191071
19.83764126,11.73081303,-33.47798157,49.6456871
19.84764126,17.85643959,-35.19602966,54.94818115
19.85764126,25.48475838,-35.76551819,55.45067215
19.86764126,31.23231697,-34.42554092,54.33561707
19.87764126,31.23231697,-34.42554092,54.33561707
19.88764126,31.23231697,-34.42554092,54.33561707
19.89764126,17.33001709,-33.65026474,66.3236618
19.90764126,9.77348423,-32.05186081,65.28996277
19.91764126,6.949953556,-31.69772148,63.39484406
19.92764126,6.949953556,-31.69772148,63.39484406
19.93764126,10.8119688,-31.989645,62.72964096
19.94764126,11.47717381,-36.85664749,64.18447876
19.95764126,5.136193752,-42.19742584,62.90670776
19.96764126,-3.286541939,-49.44289398,62.24150467
19.97764126,-3.286541939,-49.44289398,62.24150467
19.98764126,-16.2269268,-71.24150848,66.26623535
19.99764126,-18.39482498,-82.11927795,62.87321091
20.00764126,-18.39482498,-82.11927795,62.87321091
20.01764126,-13.2215414,-97.08877563,30.98645592
20.02764126,-13.98245907,-96.27522278,22.65464592
20.03764126,-15.58086491,-92.23134613,14.32762337
20.04764126,-13.55653667,-86.26843262,6.014957905
20.05764126,-4.382454872,-82.80841064,-2.426920414
20.06764126,10.10369396,-78.60661316,-11.78764248
20.07764126,21.50310135,-59.83731461,2.349153519
20.08764126,14.83669662,-56.09972763,24.99482727
20.09764126,1.652244091,-48.84947586,42.88835526
20.10764126,-8.244470596,-41.87200165,44.50111771
20.11764126,-11.83849049,-37.68935013,31.72344398
20.12764126,-12.41276741,-31.19044304,16.16531181
20.13764126,-7.033702374,-19.44168472,-0.814157903
20.14764126,-7.033702374,-19.44168472,-0.814157903
20.15764126,-7.033702374,-19.44168472,-0.814157903
20.16764126,-1.515853167,-14.20140266,-4.154538155
20.17764126,-3.31525588,-12.40199947,-4.159324169
20.18764126,-5.200799942,-11.98564816,-3.608974695
20.19764126,-5.200799942,-11.98564816,-3.608974695
20.20764126,-9.617950439,-10.56909752,5.914459229
20.21764126,-8.225327492,-10.20060253,9.029914856
20.22764126,-5.889933109,-9.865608215,10.2837534
20.23764126,-3.521038532,-9.056833267,9.594620705
20.24764126,-1.367498159,-8.147561073,7.498507977
20.25764126,0.494117886,-7.568498135,5.062614441
20.26764126,2.293520451,-7.391428947,0.927816987
20.27764126,2.293520451,-7.391428947,0.927816987
20.28764126,0.436690122,-6.467799664,-0.550947428
20.29764126,-1.176072359,-6.271588326,-0.565304339
20.30764126,-2.774477959,-6.185446739,-0.407378048
20.31764126,-4.310669899,-5.922235966,-0.201595306
20.32764126,-4.310669899,-5.922235966,-0.201595306
20.33764126,-6.856633186,-5.204389095,0.339182615
20.34764126,-6.646064758,-5.381458282,0.707677305
20.35764126,-6.382854462,-5.759523869,0.846460998
20.36764126,-6.239284992,-6.094519138,0.889531791
20.37764126,-6.134000778,-5.960521221,0.583250523
20.38764126,-6.473781586,-5.773880959,-0.349950314
20.39764126,-5.688935757,-6.003592014,-2.575275421
20.40764126,-5.688935757,-6.003592014,-2.575275421
20.41764126,-3.114258766,-5.668596745,-4.972883701
20.42764126,-1.630708575,-5.788238049,-6.087938786
20.43764126,-0.640080035,-6.405586243,-7.164709091
20.44764126,-0.544367135,-7.27178812,-8.073982239
20.45764126,-0.544367135,-7.27178812,-8.073982239
20.46764126,-0.137587309,-11.45922756,-8.107481003
20.47764126,0.963111103,-13.23948765,-7.590631485
20.48764126,2.303091764,-14.59382534,-6.915855408
20.49764126,4.073780537,-15.68973827,-6.542575359
20.50764126,6.212964058,-16.32144356,-6.954140663
20.51764126,8.409575462,-17.5944252,-7.700701237
20.52764126,14.72662735,-22.96391869,-7.710272789
20.53764126,14.72662735,-22.96391869,-7.710272789
20.54764126,14.72662735,-22.96391869,-7.710272789
20.55764126,30.54318428,-24.11247444,-4.341178417
20.56764126,36.90330887,-23.96411896,-3.312264681
20.57764126,42.78007889,-23.18884468,-1.981855392
20.58764126,47.38865662,-19.04447556,-0.029312078
20.59764126,46.79523468,-16.4650135,0.707677305
20.60764126,46.11088943,-15.00060558,0.573679209
20.61764126,46.31667328,-14.17268848,-0.259023041
20.62764126,47.1733017,-13.2586298,-1.733001828
20.63764126,47.69015121,-11.15773201,-3.546761274
20.64764126,47.69015121,-11.15773201,-3.546761274
20.65764126,47.69015121,-11.15773201,-3.546761274
20.66764126,47.69015121,-11.15773201,-3.546761274
20.67764126,47.69015121,-11.15773201,-3.546761274
20.68764126,35.5154686,-13.02413368,9.283554077
20.69764126,32.54837036,-13.90469265,14.00698566
20.70764126,29.23191833,-14.47896957,16.8544445
20.71764126,29.23191833,-14.47896957,16.8544445
20.72764126,29.23191833,-14.47896957,16.8544445
20.73764126,29.23191833,-14.47896957,16.8544445
20.74764126,9.811769485,-12.84227943,8.613563538
20.75764126,6.859025955,-12.45942783,8.690134048
20.76764126,4.179064751,-12.12443256,9.034700394
20.77764126,-0.659222662,-10.90887833,9.340981483
20.78764126,-2.630908489,-10.36810017,8.771489143
20.79764126,-4.315455437,-10.21974564,7.905287743
20.80764126,-5.880361557,-10.26281643,7.240083218
20.81764126,-7.29691267,-9.94696331,6.646663189
20.82764126,-8.64167881,-9.444471359,5.636891842
20.83764126,-9.972088814,-9.276973724,4.703691006
20.84764126,-12.50848007,-9.013762474,4.741976261
20.85764126,-13.18804169,-8.956335068,4.368695736
20.86764126,-12.65683556,-10.0331049,4.272983074
20.87764126,-12.65683556,-10.0331049,4.272983074
20.88764126,-8.723034859,-10.33938694,3.277568817
20.89764126,-6.253642082,-10.91366386,3.65563488
20.90764126,-6.253642082,-10.91366386,3.65563488
20.91764126,-6.253642082,-10.91366386,3.65563488
20.92764126,-6.253642082,-10.91366386,3.65563488
20.93764126,-6.253642082,-10.91366386,3.65563488
20.94764126,-7.277770042,-9.291330338,11.32223892
20.95764126,-8.837890625,-9.69811058,11.73858929
20.96764126,-9.804591179,-10.49252701,11.66680527
20.97764126,-11.44128132,-13.6031971,11.04467106
20.98764126,-12.5563364,-14.62253952,10.84367371
20.99764126,-13.23589802,-16.79522133,10.01097202
21.00764126,-14.45623779,-20.00638962,9.991828918
21.01764126,-16.59542084,-22.59063911,11.09731293
21.02764126,-18.95952988,-25.73959351,13.47099304
21.03764126,-20.20858383,-32.20021439,21.27638054
21.04764126,-16.66242027,-34.61696625,27.02872658
21.05764126,-16.66242027,-34.61696625,27.02872658
21.06764126,0.594616413,-36.31108475,36.88237
21.07764126,11.53460121,-34.72224808,38.94019699
21.08764126,21.84766769,-31.52543831,38.29413605
21.09764126,37.27658844,-26.33301353,39.6054039
21.10764126,42.2297287,-24.44268417,43.16113663
21.11764126,47.13022995,-24.58625221,48.56412888
21.12764126,53.59085083,-28.31905556,56.58008575
21.13764126,58.06542969,-31.04208755,63.21298981
21.14764126,56.8498764,-32.25764084,65.55316925
21.15764126,51.07360458,-32.50170898,65.12725067
21.16764126,51.07360458,-32.50170898,65.12725067
21.17764126,32.83551025,-31.96093178,60.1884613
21.18764126,32.83551025,-31.96093178,60.1884613
21.19764126,32.83551025,-31.96093178,60.1884613
21.20764126,24.89612389,-51.16094208,51.39244843
21.21764126,29.67698288,-62.0195694,48.18127823
21.22764126,55.20840073,-95.16016388,42.80221176
21.23764126,62.06144333,-114.0347519,38.30370712
21.24764126,57.44808197,-119.3420258,32.60878754
21.25764126,44.44069672,-115.8341522,29.45026207
21.26764126,29.77748108,-113.9390335,27.04308319
21.27764126,15.62632847,-111.0102234,25.43989182
21.28764126,4.088137627,-103.6786118,24.53540611
21.29764126,4.088137627,-103.6786118,24.53540611
21.30764126,-19.31845284,-70.6289444,24.6215477
21.31764126,-21.40020943,-56.00401306,27.62693214
21.32764126,-17.87797356,-46.74378967,24.83211517
21.33764126,-13.72403431,-39.72803497,19.37169456
21.34764126,-13.72403431,-39.72803497,19.37169456
21.35764126,-7.660621643,-19.50389671,6.115456581
21.36764126,-5.827719688,-15.48874092,2.995215654
21.37764126,-4.267599106,-13.18206024,0.573679209
21.38764126,-4.363312244,-12.13878918,-0.306879491
21.39764126,-6.387639999,-11.78465176,0.114257284
21.40764126,-9.464810371,-11.79900837,2.799004316
21.41764126,-11.80020523,-11.82293701,9.618548393
21.42764126,-9.704092026,-10.42074299,17.16072655
21.43764126,-5.799005508,-10.44945621,13.911273
21.44764126,-2.377269268,-10.49252701,8.072785378
21.45764126,-2.377269268,-10.49252701,8.072785378
21.46764126,1.173679471,-10.03789139,-2.469991207
21.47764126,1.747956991,-9.841679573,-5.116453171
21.48764126,1.747956991,-9.841679573,-5.116453171
21.49764126,-1.836491346,-8.027919769,-3.451048374
21.50764126,-2.855833769,-7.879564762,-2.024926186
21.51764126,-3.793820381,-8.023134232,-1.1395818
21.52764126,-4.559523582,-8.080561638,-0.943370342
21.53764126,-4.8849473,-8.042277336,-0.857228696
21.54764126,-4.8849473,-8.042277336,-0.857228696
21.55764126,-4.8849473,-8.697910309,0.272183567
21.56764126,-4.956732273,-8.252845764,1.023529887
21.57764126,-4.655236244,-7.831708431,1.492523074
21.58764126,-3.798605919,-7.702496052,1.516451359
21.59764126,-2.870190859,-7.846065521,0.793818891
21.60764126,-2.023131609,-7.7838521,-0.273379982
21.61764126,-0.386440843,-8.248059273,-2.680559635
21.62764126,0.197407871,-8.721838951,-3.757329702
21.63764126,0.575473845,-8.970691681,-4.52781868
21.64764126,0.575473845,-8.970691681,-4.52781868
21.65764126,0.96789676,-9.095118523,-5.307878971
21.66764126,1.259821177,-10.19103146,-5.609374523
21.67764126,1.259821177,-10.19103146,-5.609374523
21.68764126,1.259821177,-10.19103146,-5.609374523
21.69764126,1.259821177,-10.19103146,-5.609374523
21.70764126,5.126622677,-13.66541004,-9.887741089
21.71764126,7.586444378,-14.96710587,-10.07916737
21.72764126,11.15174961,-15.26860142,-9.457033157
21.73764126,15.63589954,-15.44088459,-8.432905197
21.74764126,26.14517593,-15.95773411,-6.07836771
21.75764126,31.34238815,-15.97687721,-5.264808178
21.76764126,35.67339706,-16.19223022,-5.169095039
21.77764126,38.10450363,-16.57986832,-5.791228771
21.78764126,38.36771393,-16.26880074,-6.475576401
21.79764126,38.00879288,-15.09631824,-5.934798241
21.80764126,40.75096512,-13.75155163,-1.670788407
21.81764126,43.36392975,-13.2777729,1.368096352
21.82764126,45.57011032,-12.64128208,3.468994617
21.83764126,46.35974121,-12.07657623,4.517050743
21.84764126,45.48875427,-11.76550865,4.818546772
21.85764126,42.64129639,-11.95214939,5.072185993
21.86764126,37.48715591,-11.93779182,5.909673691
21.87764126,37.48715591,-11.93779182,5.909673691
21.88764126,37.48715591,-11.93779182,5.909673691
21.89764126,37.48715591,-11.93779182,5.909673691
21.90764126,37.48715591,-11.93779182,5.909673691
21.91764126,8.873783112,-9.420542717,8.359924316
21.92764126,6.677171707,-9.588040352,6.641877651
21.93764126,6.677171707,-9.588040352,6.641877651
21.94764126,6.677171707,-9.588040352,6.641877651
21.95764126,-0.367298275,-9.812965393,2.550150633
21.96764126,-1.98963201,-9.760323524,1.932802439
21.97764126,-3.516252756,-9.908679008,1.990230203
21.98764126,-5.143372059,-10.4159565,3.110071182
21.99764126,-7.009773731,-10.17188931,4.775475979
22.00764126,-9.426525116,-8.889336586,7.086942673
22.01764126,-9.594022751,-9.195617676,7.417151928
22.02764126,-9.617950439,-9.238688469,7.287939548
22.03764126,-9.804591179,-8.386843681,6.512664795
22.04764126,-10.3214407,-8.415556908,5.885745525
22.05764126,-10.99621677,-8.889336586,6.02452898
22.06764126,-10.99621677,-8.889336586,6.02452898
22.07764126,-10.99621677,-8.889336586,6.02452898
22.08764126,-14.0303154,-11.44965649,16.35673714
22.09764126,-14.15952778,-11.89950657,18.09392738
22.10764126,-13.72881985,-12.44507027,18.23270988
22.11764126,-12.7812624,-12.68435287,17.69193268
22.12764126,-12.7812624,-12.68435287,17.69193268
22.13764126,-12.7812624,-12.68435287,17.69193268
22.14764126,-8.684749603,-13.88076401,15.13639832
22.15764126,-9.431310654,-13.43569946,14.79661655
22.16764126,-10.4219389,-12.9954195,15.0598278
22.17764126,-9.684949875,-12.56471157,16.25623894
22.18764126,-7.775477409,-12.89013577,17.80200195
22.19764126,-4.904089928,-13.50748348,20.87438583
22.20764126,-3.358326674,-13.51226902,22.664217
22.21764126,-0.214157626,-13.73240948,24.84647179
22.22764126,-0.214157626,-13.73240948,24.84647179
22.23764126,-0.214157626,-13.73240948,24.84647179
22.24764126,18.98106575,-18.69033813,39.30390549
22.25764126,18.98106575,-18.69033813,39.30390549
22.26764126,47.22594452,-21.41337013,41.28994751
22.27764126,54.62454987,-23.49991035,39.51447678
22.28764126,54.62454987,-23.49991035,39.51447678
22.29764126,54.74897766,-24.1076889,38.73441315
22.30764126,51.4899559,-23.87797737,38.94498444
22.31764126,49.60919571,-26.19422913,40.68695831
22.32764126,47.3120842,-28.51526833,47.52085876
22.33764126,47.73800659,-31.5110817,50.78945541
22.34764126,48.9679184,-37.95256042,53.26842117
22.35764126,48.81477737,-45.57130814,56.20680618
22.36764126,46.62773895,-52.79284668,58.17848969
22.37764126,41.09553146,-59.93302917,57.39842987
22.38764126,29.44248581,-73.56732941,53.18227768
22.39764126,30.06462097,-81.03772736,49.25804901
22.40764126,32.97907639,-86.94799805,43.1946373
22.41764126,36.5683136,-89.68538666,36.36552048
22.42764126,37.75993729,-91.11151123,31.74737358
22.43764126,35.03211975,-91.21200562,28.4117775
22.44764126,28.67678261,-88.84790039,27.02394104
22.45764126,14.73141289,-83.45925903,33.58027649
22.46764126,6.643671989,-78.21897888,36.17409515
22.47764126,-2.023131609,-68.46105194,38.10271072
22.48764126,-9.761520386,-55.94179916,39.95954132
22.49764126,-13.75753403,-44.20739746,40.85924149
22.49764126,-13.75753403,-44.20739746,40.85924149
22.51764126,-13.75753403,-44.20739746,40.85924149
22.52764126,-13.75753403,-44.20739746,40.85924149
22.53764126,2.293520451,-25.06960297,22.83650017
22.54764126,-1.869990945,-25.95494652,25.45903397
22.55764126,-9.814162254,-26.328228,29.1152668
22.56764126,-18.41396713,-24.90210533,31.29752159
22.57764126,-23.01775742,-20.63809586,22.23350906
22.58764126,-20.43350983,-19.30290031,14.31326675
22.59764126,-17.21277046,-18.12084579,7.934001446
22.60764126,-13.94417381,-16.87657738,3.531208038
22.61764126,-10.65165043,-16.26880074,0.789033294
22.62764126,-7.82333374,-16.50329781,-0.665802896
22.63764126,-6.559923172,-16.43151283,-1.565504193
22.64764126,-6.559923172,-16.43151283,-1.565504193
22.65764126,-6.559923172,-16.43151283,-1.565504193
22.66764126,-6.559923172,-16.43151283,-1.565504193
22.67764126,-6.559923172,-16.43151283,-1.565504193
22.68764126,-6.559923172,-16.43151283,-1.565504193
22.69764126,-1.266999602,-10.01396275,-2.575275421
22.70764126,-1.266999602,-10.01396275,-2.575275421
22.71764126,-1.266999602,-10.01396275,-2.575275421
22.72764126,-1.266999602,-10.01396275,-2.575275421
22.73764126,-1.266999602,-10.01396275,-2.575275421
22.74764126,-2.769692183,-10.66481018,-2.302493572
22.75764126,-2.214557409,-10.66481018,-1.74735868
22.76764126,-0.826720238,-11.59322548,-1.661217093
22.77764126,1.714457393,-13.40698528,-1.991426587
22.78764126,2.652443886,-13.30648708,-2.245065928
22.79764126,3.518645763,-13.52662659,-2.465205431
22.80764126,4.370490551,-14.50289822,-2.761915445
22.81764126,4.738985062,-15.84766483,-2.996412039
22.82764126,4.892126083,-16.95314789,-2.680559635
22.83764126,4.552345276,-18.23091507,-0.455234498
22.84764126,4.48534584,-18.57548141,0.856032312
22.85764126,5.265406132,-19.56132507,1.889731646
22.86764126,6.830312252,-21.51386833,2.215155602
22.87764126,8.778069496,-23.36112785,1.908874273
22.88764126,10.6540432,-24.84467697,1.329811215
22.89764126,11.97488117,-26.17987251,0.985244751
22.90764126,11.97488117,-26.17987251,0.985244751
22.91764126,11.6207428,-29.26182747,4.507479668
22.92764126,10.29033375,-29.0895443,7.158727169
22.93764126,9.280562401,-28.7258358,9.101698875
22.94764126,9.146564484,-29.12304497,10.15932655
22.95764126,9.969695091,-29.76910591,10.69053364
22.96764126,9.969695091,-29.76910591,10.69053364
22.97764126,14.53520107,-28.05105972,10.86760235
22.98764126,15.92303848,-26.88814735,10.75753212
22.99764126,17.11944962,-25.72523689,10.64267731
23.00764126,17.78465462,-24.36132813,10.51346493
23.01764126,17.58365631,-22.40399933,10.36510944
23.02764126,17.58365631,-22.40399933,10.36510944
23.03764126,17.58365631,-22.40399933,10.36510944
23.04764126,12.99422359,-13.12463188,9.044271469
23.04764126,12.99422359,-13.12463188,9.044271469
23.06764126,10.9746809,-11.07159042,7.421937466
23.07764126,10.94596672,-10.90887833,7.785646915
23.08764126,11.52503014,-10.97587776,8.929415703
23.09764126,11.52503014,-10.97587776,8.929415703
23.10764126,12.62572861,-9.056833267,15.98345661
23.11764126,13.24786282,-7.467999458,17.51486397
23.12764126,14.45384502,-6.180660725,17.77807426
23.13764126,16.11446381,-5.03689146,16.86401558
23.14764126,18.21057701,-4.103690624,15.10768414
23.15764126,22.3501606,-2.715853691,12.82014561
23.16764126,23.9198513,-1.610369682,13.23649693
23.17764126,25.14019203,-0.605384111,14.24626827
23.18764126,25.14019203,-0.605384111,14.24626827
23.19764126,25.92025185,0.275174618,14.9401865
23.20764126,25.54218483,0.677168787,14.8396883
23.21764126,24.94397926,1.002592683,14.59083462
23.22764126,24.94397926,1.002592683,14.59083462
23.23764126,24.94397926,1.002592683,14.59083462
23.24764126,26.02075005,1.289731383,10.51346493
23.25764126,27.44208717,0.366101861,9.101698875
23.26764126,28.64806938,-1.141376376,7.92443037
23.27764126,29.71526718,-2.87856555,7.039085865
23.28764126,31.50988579,-6.003592014,7.101299286
23.29764126,31.50988579,-6.003592014,7.101299286
23.30764126,34.61576843,-10.38724327,8.412566185
23.31764126,36.92723465,-13.18206024,8.670990944
23.32764126,39.44448471,-16.3645134,8.302495956
23.33764126,39.44448471,-16.3645134,8.302495956
23.34764126,43.6606369,-23.80140686,5.660820007
23.35764126,43.6606369,-23.80140686,5.660820007
23.36764126,43.6606369,-23.80140686,5.660820007
23.37764126,43.6606369,-23.80140686,5.660820007
23.38764126,47.32644272,-37.8999176,8.034500122
23.39764126,46.9723053,-41.99164581,8.503493309
23.40764126,45.80939484,-46.96392822,8.685347557
23.41764126,45.80939484,-46.96392822,8.685347557
23.42764126,45.80939484,-46.96392822,8.685347557
23.43764126,45.80939484,-46.96392822,8.685347557
23.44764126,33.91706467,-61.72764587,8.058428764
23.45764126,27.81536674,-60.98108673,5.14397049
23.46764126,21.06760788,-58.90890121,2.880360365
23.47764126,13.88435364,-53.98925781,2.138585329
23.48764126,3.403790236,-40.19224167,3.009572744
23.49764126,1.44646132,-35.45923996,2.28215456
23.50764126,1.44646132,-35.45923996,2.28215456
23.51764126,1.44646132,-35.45923996,2.28215456
23.52764126,-0.888933599,-26.84507751,-1.082154036
23.53764126,-1.75034976,-24.85903358,-1.910070658
23.54764126,-1.75034976,-24.85903358,-1.910070658
23.55764126,-6.038288116,-20.62373924,-0.594018221
23.56764126,-9.077172279,-19.14018822,1.411167145
23.57764126,-12.27398396,-17.24985886,4.569693089
23.58764126,-15.0161581,-15.23031616,6.809374809
23.59764126,-16.08335686,-13.47398472,7.364510059
23.60764126,-16.08335686,-13.47398472,7.364510059
23.61764126,-12.15912819,-11.23430252,1.459023595
23.62764126,-10.55115128,-10.29153061,0.171685025
23.63764126,-9.192028046,-8.961120605,0.305683106
23.64764126,-7.981259823,-8.224131584,1.554736495
23.65764126,-7.627122402,-8.382058144,3.780061483
23.66764126,-8.627322197,-8.913264275,7.331010342
23.67764126,-8.627322197,-8.913264275,7.331010342
23.68764126,-11.0871439,-15.05324745,21.25723839
23.69764126,-11.55613708,-16.31187248,23.0279274
23.70764126,-11.55613708,-16.31187248,23.0279274
23.70764126,-10.44586754,-17.17807388,22.39143562
23.72764126,-4.502095699,-18.29791451,19.81675911
23.73764126,-4.502095699,-18.29791451,19.81675911
23.74764126,-4.502095699,-18.29791451,19.81675911
23.75764126,4.078566074,-14.11047554,15.41875076
23.76764126,6.897311211,-14.27797318,13.58106327
23.77764126,8.682356834,-14.71346664,12.1980114
23.78764126,8.682356834,-14.71346664,12.1980114
23.79764126,7.241877556,-13.43569946,16.11745453
23.80764126,12.84108257,-15.07717514,24.19083786
23.81764126,19.34477425,-16.07737541,25.66960335
23.82764126,27.29373169,-16.58465385,24.96611404
23.83764126,36.62095261,-16.91007805,23.78884506
23.84764126,46.38845444,-17.21635818,22.4010067
23.85764126,55.92624664,-18.43669891,20.83131599
23.86764126,71.81937408,-27.45285416,17.27079582
23.87764126,76.89694214,-29.00818825,13.69591904
23.88764126,78.10292816,-26.91207695,11.58544922
23.89764126,80.18946838,-30.49173927,13.19821167
23.90764126,83.5920639,-40.07260132,15.84945869
23.91764126,83.76434326,-47.14099884,18.63470459
23.92764126,79.88796997,-50.76373291,20.62074661
23.93764126,79.88796997,-50.76373291,20.62074661
23.94764126,79.88796997,-50.76373291,20.62074661
23.95764126,78.62456512,-81.64550018,21.49173546
23.96764126,74.72425842,-88.63254547,22.161726
23.97764126,67.5792923,-94.49974823,20.36710739
23.98764126,67.5792923,-94.49974823,20.36710739
23.99764126,67.5792923,-94.49974823,20.36710739
24.00764126,67.5792923,-94.49974823,20.36710739
24.01764126,31.28017426,-108.6508942,8.254639626
24.02764126,22.68994141,-109.0002518,3.794418573
24.03764126,10.64925671,-105.4828033,1.96151638
24.04764126,-2.535195589,-94.94480896,2.416152716
24.05764126,-19.66780663,-70.75815582,-0.105882399
24.06764126,-22.49612236,-58.6313324,-0.330807716
24.07764126,-22.04627228,-48.78247452,0.961316526
24.08764126,-19.59602165,-41.64707947,3.114856958
24.09764126,-16.76291847,-35.54059601,4.794618607
24.10764126,-14.81037617,-30.20459938,4.287340164
24.11764126,-14.03988647,-25.63430977,2.133799553
24.12764126,-15.28894043,-18.47976875,-2.862414122
24.13764126,-15.28894043,-18.47976875,-2.862414122
24.14764126,-15.28894043,-18.47976875,-2.862414122
24.15764126,-17.66262054,-10.90887833,-4.082753658
24.16764126,-17.66262054,-10.90887833,-4.082753658
24.17764126,-16.39442444,-8.659625053,-0.72323066
24.18764126,-16.39442444,-8.659625053,-0.72323066
24.19764126,-16.39442444,-8.659625053,-0.72323066
24.20764126,-9.713663101,-7.286144733,1.521237016
24.21764126,-7.670193195,-6.893722057,0.506680191
24.22764126,-5.842076302,-6.884150982,-0.996012449
24.23764126,-4.698307037,-6.855436802,-2.728415966
24.24764126,-3.856033802,-6.754938126,-4.255036831
24.25764126,-1.65463686,-7.166503906,-6.083153248
24.26764126,-0.553938448,-7.467999458,-6.714858532
24.27764126,0.235693038,-7.764709473,-7.193423271
24.28764126,0.417547554,-8.386843681,-7.820342541
24.29764126,-0.032303106,-9.320044518,-8.480761528
24.30764126,-0.917647481,-10.08096218,-8.897112846
24.31764126,-2.472982168,-9.990034103,-9.361320496
24.32764126,-0.989432156,-9.836894035,-9.189037323
24.33764126,-0.989432156,-9.836894035,-9.189037323
24.34764126,5.839683533,-9.980463028,-9.14596653
24.35764126,9.672985077,-10.02353382,-10.02173901
24.36764126,9.672985077,-10.02353382,-10.02173901
24.37764126,16.65524292,-10.69352436,-12.86441231
24.38764126,16.65524292,-10.69352436,-12.86441231
24.39764126,27.80579567,-11.99043465,-8.251050949
24.40764126,31.39981461,-11.11944675,-5.628517151
24.41764126,34.88376617,-10.00439167,-2.910270452
24.42764126,37.87479401,-8.291130066,-0.986441135
