Time (s),Acceleration x (m/s^2),Acceleration y (m/s^2),Acceleration z (m/s^2)
0.053755947,3.781856298,2.289931297,9.695118904
0.062412926,3.154936552,2.467000246,10.61874866
0.072412926,2.719442844,2.730210543,11.52323532
0.082412926,2.719442844,2.730210543,11.52323532
0.092412926,2.719442844,2.730210543,11.52323532
0.102412926,2.719442844,2.730210543,11.52323532
0.112412926,2.953939438,3.381058455,7.881359577
0.122412926,2.953939438,3.381058455,7.881359577
0.132412926,2.953939438,3.381058455,7.881359577
0.142412926,2.953939438,3.381058455,7.881359577
0.152412926,2.910868645,1.600798368,7.713861942
0.162412926,2.642872572,1.261017561,7.599006653
0.172412926,2.642872572,1.261017561,7.599006653
0.182412926,1.929811478,1.773081541,8.115856171
0.192412926,1.929811478,1.773081541,8.115856171
0.202412926,1.929811478,1.773081541,8.115856171
0.212412926,0.183050931,2.495713949,10.82453156
0.222412926,0.096909314,2.926422119,10.63310528
0.232412926,0.05383851,2.89292264,11.0494566
0.242412926,0.331405938,2.873780012,10.36989498
0.252412926,0.652044177,3.151347399,10.07318497
0.262412926,0.814756095,4.855037212,9.728618622
0.272412926,0.939182878,5.788238049,9.628120422
0.282412926,1.274178028,6.482156754,9.987043381
0.292412926,1.948953986,6.549155712,10.34596729
0.302412926,2.398804665,6.496513367,10.13539886
0.312412926,2.293520451,6.616154671,9.78126049
0.322412926,2.293520451,6.616154671,9.78126049
0.332412926,2.293520451,6.616154671,9.78126049
0.342412926,2.293520451,6.616154671,9.78126049
0.352412926,2.293520451,6.616154671,9.78126049
0.362412926,1.944168448,7.917850018,10.23111153
0.372412926,1.944168448,7.917850018,10.23111153
0.382412926,2.049452543,7.702496052,10.80060291
0.392412926,2.049452543,7.702496052,10.80060291
0.402412926,2.537588358,5.38624382,9.70468998
0.412412926,2.882154942,4.55354166,8.613563538
0.422412926,3.164507866,3.945764542,7.565506935
0.432412926,3.375076294,3.553341627,6.603592396
0.442412926,3.466003656,3.30927372,5.751747608
0.452412926,4.164707661,2.289931297,4.411766529
0.462412926,3.480360508,2.127219439,4.31126833
0.472412926,2.633301258,2.151147604,4.158127785
0.482412926,1.795813441,2.266003132,4.349553585
0.492412926,0.824327409,2.318645239,4.861617565
0.502412926,-0.089730851,2.218146563,5.464608669
0.512412926,-0.472582459,1.849651933,5.603392601
0.522412926,-0.472582459,1.849651933,5.603392601
0.532412926,-0.472582459,1.849651933,5.603392601
0.542412926,-0.051445685,0.112462662,4.741976261
0.552412926,-0.051445685,0.112462662,4.741976261
0.562412926,0.412761897,0.236889437,5.589035511
0.572412926,0.594616413,0.136390895,5.880959988
0.582412926,0.594616413,0.136390895,5.880959988
0.592412926,0.594616413,0.136390895,5.880959988
0.602412926,0.364905447,-0.882951558,7.689933777
0.612412926,0.652044177,-1.308874011,8.082356453
0.622412926,0.853041291,-1.572084427,7.967501163
0.632412926,0.996610641,-1.758724689,7.680362701
0.642412926,0.915254653,-1.878365755,7.608577728
0.652412926,0.915254653,-1.878365755,7.608577728
0.662412926,0.235693038,-2.021935225,6.857231617
0.672412926,0.144765764,-2.356930256,7.216155052
0.682412926,-0.094516493,-2.514856577,7.421937466
0.692412926,-0.352941334,-2.620140791,7.503293514
0.702412926,-0.52043891,-2.830709219,7.565506935
0.712412926,-0.52043891,-2.830709219,7.565506935
0.722412926,-0.716650367,-4.15633297,6.847660065
0.732412926,-1.396211982,-4.271188259,6.38823843
0.742412926,-2.157129526,-4.33340168,6.225526333
0.752412926,-2.157129526,-4.33340168,6.225526333
0.762412926,-3.253042459,-4.950749874,7.244868755
0.772412926,-3.253042459,-4.950749874,7.244868755
0.782412926,-3.253042459,-4.950749874,7.244868755
0.792412926,0.948754191,-8.678768158,10.60917759
0.802412926,2.240878344,-9.477970123,11.78644657
0.812412926,3.193221807,-9.932606697,12.78186035
0.822412926,3.762713671,-9.94696331,13.37528038
0.832412926,4.145565033,-9.803394318,13.50449276
0.842412926,6.7202425,-10.38724327,12.95892906
0.852412926,8.711071014,-11.30608654,13.23171139
0.862412926,11.50110245,-12.09093285,13.78206062
0.872412926,14.65484238,-12.80877972,14.16969776
0.882412926,17.49751472,-13.4213419,14.2749815
0.892412926,19.82333946,-13.53141212,13.96391487
0.902412926,24.19263268,-13.07677555,12.81057453
0.912412926,24.19263268,-13.07677555,12.81057453
0.922412926,24.19263268,-13.07677555,12.81057453
0.932412926,24.19263268,-13.07677555,12.81057453
0.942412926,32.56751251,-14.14875984,13.05942822
0.952412926,34.65405273,-14.80917931,13.64327621
0.962412926,36.49652863,-15.38824272,12.99721432
0.972412926,36.49652863,-15.38824272,12.99721432
0.982412926,36.49652863,-15.38824272,12.99721432
0.992412926,40.5356102,-14.12004662,12.35115242
1.002412926,41.8133812,-13.77069473,12.62871933
1.012412926,42.45944214,-13.30170155,13.2269249
1.022412926,42.70829391,-13.19163132,14.8205452
1.032412926,42.70829391,-13.19163132,14.8205452
1.042412926,41.60280991,-17.41735649,20.37189293
1.052412926,40.52603912,-19.56132507,23.08535385
1.062412926,39.44448471,-22.14557266,26.83730125
1.072412926,38.98027802,-25.68695068,30.546175
1.082412926,38.55913925,-30.03231621,33.23571014
1.092412926,38.00879288,-35.30131149,34.80540085
1.102412926,34.69234085,-47.97370148,35.80559921
1.112412926,31.87359428,-57.61677551,35.09253693
1.122412926,27.04487801,-67.90113068,33.50370407
1.132412926,21.01017952,-76.12765503,31.55594635
1.142412926,14.68355656,-81.7077179,27.91885567
1.152412926,8.026723862,-82.48777771,22.43450737
1.162412926,8.026723862,-82.48777771,22.43450737
1.172412926,8.026723862,-82.48777771,22.43450737
1.182412926,-23.69731903,-56.44429398,5.746961594
1.192412926,-32.25883865,-42.39842606,6.469594002
1.202412926,-35.20679474,-33.46841049,6.613163471
1.212412926,-30.06222725,-29.59682274,5.73260498
1.222412926,-24.38166618,-29.77389145,4.292125702
1.232412926,-19.43330956,-25.14138794,-6.815357208
1.242412926,-16.99263,-20.9204483,-12.24706459
1.252412926,-16.99263,-20.9204483,-12.24706459
1.262412926,-11.95813084,-14.03869057,-17.53998756
1.272412926,-11.29771233,-11.8660078,-14.97966766
1.282412926,-11.9724884,-9.841679573,-10.80179977
1.292412926,-11.9724884,-9.841679573,-10.80179977
1.302412926,-11.9724884,-9.841679573,-10.80179977
1.312412926,-12.07777214,-7.391428947,1.454237938
1.322412926,-12.61376476,-7.137789726,2.09072876
1.332412926,-12.55155087,-7.171289444,1.62652123
1.342412926,-12.10170078,-7.25743103,0.583250523
1.352412926,-12.10170078,-7.25743103,0.583250523
1.362412926,-12.10170078,-7.25743103,0.583250523
1.372412926,-6.847062111,-6.367300987,-0.718445003
1.382412926,-6.148357868,-6.525227547,-1.091725349
1.392412926,-5.320441246,-5.91266489,-1.015154958
1.402412926,-3.793820381,-5.304887772,-0.23509483
1.412412926,-2.305484533,-5.213960648,0.487537622
1.422412926,-2.305484533,-5.213960648,0.487537622
1.432412926,-2.305484533,-5.213960648,0.487537622
1.442412926,-1.367498159,-4.840680122,1.559522152
1.452412926,-0.979860902,-4.744967461,1.951945066
1.462412926,-0.577866673,-4.606183529,2.349153519
1.472412926,-0.252442777,-4.606183529,2.832503796
1.482412926,0.757328391,-4.821537495,4.205984116
1.492412926,1.063609719,-5.046463013,4.895116806
1.502412926,1.159322619,-5.242674351,5.65603447
1.512412926,1.030110121,-5.414957523,6.622735023
1.522412926,0.781256616,-5.5154562,7.996214867
1.532412926,1.082752228,-5.606383324,9.719047546
1.542412926,1.953739643,-5.745167255,11.19302654
1.552412926,4.380061626,-6.147161484,12.59043407
1.562412926,4.380061626,-6.147161484,12.59043407
1.572412926,6.701099873,-6.089733601,12.32243824
1.582412926,6.940382004,-5.860022545,12.02572823
1.592412926,6.945167542,-5.759523869,11.92044449
1.602412926,7.112665176,-5.864808083,12.40857983
1.612412926,7.112665176,-5.864808083,12.40857983
1.622412926,7.112665176,-5.864808083,12.40857983
1.632412926,7.112665176,-5.864808083,12.40857983
1.642412926,8.782855988,-6.955935478,17.4813633
1.652412926,8.782855988,-6.955935478,17.4813633
1.662412926,10.53440189,-6.73100996,16.63430405
1.672412926,11.86481094,-6.850651264,15.45225048
1.682412926,11.86481094,-6.850651264,15.45225048
1.692412926,11.86481094,-6.850651264,15.45225048
1.702412926,11.86481094,-6.850651264,15.45225048
1.712412926,16.69831276,-8.932407379,18.25663948
1.722412926,17.50230217,-9.6693964,18.85963058
1.732412926,19.09113503,-10.28195858,19.41954994
1.742412926,19.09113503,-10.28195858,19.41954994
1.742412926,23.38385963,-11.17687416,19.28076744
1.762412926,23.38385963,-11.17687416,19.28076744
1.772412926,26.604599,-11.18166065,18.60599136
1.782412926,27.37508774,-11.48794174,17.95035744
1.792412926,28.0737915,-12.26321602,17.57229042
1.802412926,29.24627495,-13.3208437,17.99342728
1.812412926,29.24627495,-13.3208437,17.99342728
1.822412926,34.55355453,-16.05823326,19.19941139
1.832412926,35.96053696,-16.29751587,17.99342728
1.842412926,36.53481293,-16.31187248,16.53859138
1.852412926,36.85066605,-16.2018013,15.9691
1.862412926,37.06123352,-16.09173203,15.90210152
1.872412926,35.97967911,-16.38365746,17.13201141
1.882412926,34.73062515,-15.6179533,18.99841309
1.892412926,33.85963821,-15.0723896,21.18545341
1.902412926,33.85963821,-15.0723896,21.18545341
1.912412926,34.69234085,-16.05344772,26.00938416
1.922412926,36.04188919,-16.55115509,29.77090073
1.932412926,36.04188919,-16.55115509,29.77090073
1.942412926,36.04188919,-16.55115509,29.77090073
1.952412926,36.04188919,-16.55115509,29.77090073
1.962412926,36.04188919,-16.55115509,29.77090073
1.972412926,43.56970978,-28.33341217,32.60878754
1.982412926,40.26282883,-35.0381012,34.75275803
1.992412926,33.883564,-40.23052597,37.96392441
2.002412926,33.883564,-40.23052597,37.96392441
2.012412926,33.883564,-40.23052597,37.96392441
2.022412926,15.13340664,-68.16433716,27.60778999
2.032412926,10.22333431,-70.59544373,18.80698776
2.042412926,6.20817852,-74.42874908,12.61914825
2.052412926,6.20817852,-74.42874908,12.61914825
2.062412926,6.20817852,-74.42874908,12.61914825
2.072412926,6.20817852,-74.42874908,12.61914825
2.082412926,6.20817852,-74.42874908,12.61914825
2.092412926,-21.80220413,-41.48436737,9.752547264
2.102412926,-19.55294991,-42.19742584,5.435894966
2.112412926,-19.47159386,-40.59902191,-1.412363529
2.122412926,-18.81117439,-37.24906921,-7.906484127
2.132412926,-18.81117439,-37.24906921,-7.906484127
2.142412926,-21.71127701,-23.71047974,-19.28196335
2.152412926,-23.68774796,-19.72882271,-15.62094402
2.162412926,-21.43849373,-18.44148445,-7.389634609
2.172412926,-19.1748848,-19.12104607,1.822732687
2.182412926,-17.65304947,-19.92024803,8.809774399
2.192412926,-13.47518063,-20.56152534,14.08355618
2.202412926,-12.05862999,-19.89632034,11.60937691
2.212412926,-12.05862999,-19.89632034,11.60937691
2.222412926,-9.445667267,-16.61336708,4.177269936
2.232412926,-8.096115112,-15.08674717,1.14795661
2.242412926,-6.497709751,-13.91426373,-0.91465646
2.252412926,-4.703093052,-13.08156109,-1.953141451
2.262412926,-4.703093052,-13.08156109,-1.953141451
2.272412926,0.570688188,-11.26780224,-0.268594354
2.282412926,0.570688188,-11.26780224,-0.268594354
2.292412926,2.700300455,-10.10967541,2.234298229
2.302412926,2.977867842,-9.396614075,3.267997503
2.312412926,2.834298372,-8.640482903,4.210769653
2.322412926,2.834298372,-8.640482903,4.210769653
2.332412926,2.834298372,-8.640482903,4.210769653
2.342412926,1.412961721,-4.697110653,5.311468124
2.352412926,1.211964726,-3.940979004,5.378467083
2.362412926,1.484746456,-3.7256248,5.397609711
2.372412926,1.9585253,-3.73998189,5.072185993
2.382412926,2.446661234,-4.003192425,4.732405186
2.392412926,2.446661234,-4.003192425,4.732405186
2.402412926,3.667000771,-5.218746185,7.536793232
2.412412926,4.025924206,-5.127819061,9.915258408
2.422412926,4.456632137,-4.98903513,12.31286716
2.432412926,5.006981373,-4.907679081,14.27019596
2.442412926,5.308476925,-5.142175674,15.19382572
2.452412926,5.002195835,-7.113861561,14.28455257
2.462412926,5.002195835,-7.113861561,14.28455257
2.462412926,6.318248272,-8.372486115,13.58584881
2.482412926,11.16610718,-10.75573826,15.76810265
2.492412926,14.23849106,-10.84187984,17.93121529
2.502412926,16.96152306,-10.5978117,19.34297943
2.512412926,16.96152306,-10.5978117,19.34297943
2.522412926,21.02453613,-10.45902824,14.59083462
2.532412926,21.80938148,-10.71266651,11.4514513
2.542412926,22.4506588,-12.18664551,9.800403595
2.552412926,22.89093781,-11.92343521,11.70030499
2.562412926,23.41257286,-10.66959572,15.97867107
2.572412926,24.16391945,-10.717453,19.79761696
2.582412926,24.16391945,-10.717453,19.79761696
2.592412926,24.81476784,-12.85185051,19.32862282
2.602412926,23.9820652,-13.08634663,17.24686813
2.612412926,23.9820652,-13.08634663,17.24686813
2.622412926,23.82413864,-13.04806232,15.72981739
2.632412926,23.82413864,-13.04806232,15.72981739
2.642412926,23.82413864,-13.04806232,15.72981739
2.652412926,23.82413864,-13.04806232,15.72981739
2.662412926,23.82413864,-13.04806232,15.72981739
2.672412926,26.56631279,-14.54596901,19.29033852
2.682412926,26.7673111,-15.13938904,18.76870346
2.692412926,27.21716118,-15.99601936,19.68754578
2.702412926,27.83929443,-16.63251114,21.17588234
2.712412926,27.83929443,-16.63251114,21.17588234
2.722412926,28.48535728,-18.28834343,23.23849487
2.732412926,28.90649414,-17.85284996,24.23869514
2.742412926,29.66262627,-16.62293816,25.47817802
2.752412926,31.09353447,-15.4552412,26.3539505
2.762412926,32.38565826,-14.46461296,26.75115967
2.772412926,32.87379456,-13.97647667,30.65624619
2.782412926,32.62972641,-16.44108391,33.83391571
2.792412926,30.66761208,-18.85783577,35.71945953
2.802412926,27.8727951,-21.37508392,36.15016556
2.812412926,25.05404854,-25.29452896,36.27459335
2.822412926,22.36451721,-29.26182747,37.51885986
2.832412926,19.67976952,-32.95156097,38.68655777
2.842412926,19.67976952,-32.95156097,38.68655777
2.852412926,19.67976952,-32.95156097,38.68655777
2.862412926,19.67976952,-32.95156097,38.68655777
2.872412926,10.8119688,-51.34757996,26.9186573
2.882412926,8.275577545,-53.3096962,20.8696003
2.892412926,6.141179085,-57.32006454,13.29392433
2.902412926,6.141179085,-57.32006454,13.29392433
2.912412926,6.141179085,-57.32006454,13.29392433
2.922412926,-10.77607632,-43.47998047,1.96151638
2.932412926,-12.99661636,-40.75216293,0.31525439
2.942412926,-15.79621887,-37.96691513,-1.986641049
2.952412926,-19.90230179,-35.09074402,-5.953940868
2.962412926,-22.87897301,-32.23371506,-11.10329533
2.972412926,-22.6014061,-29.98924637,-19.61217308
2.982412926,-21.62992096,-28.42433929,-21.1579361
2.992412926,-19.98844337,-26.80200577,-21.64607239
3.002412926,-19.06481361,-25.30410004,-21.37807655
3.012412926,-19.35195351,-23.3419857,-19.4638176
3.022412926,-19.43330956,-21.82493591,-15.58744526
3.032412926,-17.90190315,-20.58545303,-5.188237667
3.042412926,-17.90190315,-20.58545303,-5.188237667
3.052412926,-14.32223988,-20.30788612,1.822732687
3.062412926,-14.32223988,-20.30788612,1.822732687
3.072412926,-14.32223988,-20.30788612,1.822732687
3.082412926,-14.32223988,-20.30788612,1.822732687
3.092412926,-14.32223988,-20.30788612,1.822732687
3.102412926,-14.32223988,-20.30788612,1.822732687
3.112412926,-14.32223988,-20.30788612,1.822732687
3.122412926,1.843669891,-12.90927792,-0.206380948
3.132412926,1.843669891,-12.90927792,-0.206380948
3.142412926,5.073980331,-10.41117096,3.483351469
3.152412926,5.542973518,-8.999405861,4.440480709
3.162412926,4.040280819,-6.108876228,6.421737671
3.172412926,3.695714474,-5.261816978,7.819146156
3.182412926,3.695714474,-5.261816978,7.819146156
3.192412926,3.432504177,-4.591826439,10.3028965
3.202412926,3.973282099,-4.323830605,11.03988552
3.212412926,4.667200565,-4.36211586,11.37966633
3.222412926,4.667200565,-4.36211586,11.37966633
3.232412926,4.667200565,-4.36211586,11.37966633
3.242412926,9.850054741,-6.525227547,9.355338097
3.252412926,9.864411354,-6.716653347,8.838488579
3.262412926,9.864411354,-6.716653347,8.838488579
3.272412926,7.366304398,-5.525027275,12.14058399
3.282412926,6.074180126,-5.099104881,14.80618858
3.292412926,6.074180126,-5.099104881,14.80618858
3.302412926,7.409375191,-6.807580471,17.84985924
3.312412926,7.409375191,-6.807580471,17.84985924
3.322412926,9.658628464,-7.946564198,14.80618858
3.332412926,9.658628464,-7.946564198,14.80618858
3.342412926,10.74975586,-8.989834785,12.65264797
3.352412926,10.74975586,-8.989834785,12.65264797
3.362412926,10.74975586,-8.989834785,12.65264797
3.372412926,14.83669662,-10.14317513,14.18405437
3.382412926,16.75574112,-10.22453117,14.0117712
3.392412926,16.75574112,-10.22453117,14.0117712
3.402412926,18.68435478,-9.755537987,14.02134228
3.412412926,18.66999817,-9.812965393,14.9401865
3.422412926,18.66999817,-9.812965393,14.9401865
3.432412926,19.37827492,-11.44487095,17.60100555
3.442412926,20.09612083,-11.53101254,16.69173241
3.452412926,20.51725769,-11.04287624,15.47139263
3.462412926,20.70389748,-10.11924744,14.58604908
3.472412926,21.06282043,-9.214759827,14.40897942
3.482412926,20.34976006,-7.568498135,14.44726467
3.492412926,20.34976006,-7.568498135,14.44726467
3.502412926,20.35933113,-7.91306448,14.36112309
3.512412926,19.38306046,-7.563712597,14.33240986
3.522412926,16.87538147,-6.975078106,15.06461334
3.532412926,15.81775379,-7.731209755,16.34238052
3.542412926,16.21496201,-8.688339233,17.39522171
3.552412926,16.21496201,-8.688339233,17.39522171
3.562412926,16.21496201,-8.688339233,17.39522171
3.572412926,21.28296089,-8.391629219,20.27618027
3.582412926,21.28296089,-8.391629219,20.27618027
3.592412926,24.96790695,-8.329415321,20.19003868
3.602412926,26.99223518,-8.123632431,20.26660919
3.612412926,26.99223518,-8.123632431,20.26660919
3.622412926,34.10370636,-8.26241684,23.03271294
3.632412926,35.12783432,-8.042277336,25.08096886
3.642412926,35.4149704,-7.980063438,26.53101921
3.652412926,35.22354507,-8.319844246,27.59821892
3.662412926,35.22354507,-8.319844246,27.59821892
3.672412926,35.22354507,-8.319844246,27.59821892
3.682412926,35.45325851,-19.63311005,27.16272354
3.692412926,35.45325851,-19.63311005,27.16272354
3.702412926,31.15096092,-31.92264748,30.33560753
3.712412926,26.80080986,-37.99563217,32.78107071
3.722412926,22.20659065,-45.21238327,33.81476974
3.732412926,16.94716644,-52.42913818,32.9054985
3.742412926,6.251249313,-68.64768982,21.82673073
3.752412926,6.251249313,-68.64768982,21.82673073
3.762412926,6.251249313,-68.64768982,21.82673073
3.772412926,-28.07139969,-52.8454895,7.594220638
3.782412926,-34.02474213,-43.60919189,3.086143017
3.792412926,-38.06382751,-36.3685112,-0.215952247
3.802412926,-38.06382751,-36.3685112,-0.215952247
3.812412926,-30.91407204,-30.38167,-5.212165833
3.822412926,-28.23889732,-25.62952423,-7.94955492
3.832412926,-28.23889732,-25.62952423,-7.94955492
3.842412926,-20.07458496,-21.0209465,-14.41974735
3.852412926,-17.2558403,-17.76670837,-14.7643137
3.862412926,-15.21236992,-15.13938904,-12.43848991
3.872412926,-10.80957603,-12.56949711,-5.666802406
3.882412926,-9.010173798,-11.75115204,-2.17806673
3.892412926,-7.517052174,-11.14816093,0.798604548
3.902412926,-6.11485815,-10.68395329,2.995215654
3.912412926,-4.779663086,-10.32024384,4.478765965
3.922412926,-3.568894863,-10.03789139,5.057828903
3.932412926,-1.932204247,-8.568697929,4.229912281
3.942412926,-1.932204247,-8.568697929,4.229912281
3.952412926,-1.932204247,-8.568697929,4.229912281
3.962412926,-1.932204247,-8.568697929,4.229912281
3.972412926,1.331605792,-5.089533806,1.636092424
3.982412926,1.929811478,-4.65403986,1.521237016
3.992412926,2.374876499,-4.228117466,1.736590981
4.002412926,3.178864956,-4.122833252,2.129014015
4.012412926,3.154936552,-4.275974274,2.41136694
4.022412926,3.011367321,-4.223331928,3.03350091
4.032412926,2.858226538,-4.17069006,3.674777269
4.042412926,2.671586514,-4.146761417,4.239483356
4.052412926,2.456232548,-4.180261135,4.698905468
4.062412926,2.456232548,-4.180261135,4.698905468
4.072412926,2.743371248,-4.242474556,5.19182682
4.082412926,2.480160713,-4.433900356,5.134399414
4.092412926,2.221735716,-4.620540619,5.560321808
4.102412926,1.987239242,-4.869394302,6.35952425
4.112412926,1.580459356,-5.40060091,7.407580853
4.122412926,0.872183859,-6.128018856,8.513064384
4.132412926,-1.324427366,-6.400800705,11.61416245
4.142412926,-1.324427366,-6.400800705,11.61416245
4.152412926,-3.616751432,-6.032305717,16.06959915
4.162412926,-3.894318819,-6.209374905,18.05564117
4.172412926,-2.688336134,-7.161718369,19.05105591
4.182412926,-1.085145116,-8.305487633,18.57727623
4.192412926,-1.085145116,-8.305487633,18.57727623
4.202412926,2.384447813,-8.425128937,18.57727623
4.212412926,3.226721287,-8.090133667,20.60639
4.222412926,4.504488468,-8.391629219,22.54936218
4.232412926,6.011966705,-9.473184586,24.47319221
4.242412926,7.964509964,-10.26760197,25.38246346
4.252412926,11.92702484,-10.24367332,24.22433853
4.262412926,11.92702484,-10.24367332,24.22433853
4.272412926,11.92702484,-10.24367332,24.22433853
4.282412926,11.92702484,-10.24367332,24.22433853
4.292412926,18.73221207,-8.415556908,22.14258194
4.302412926,20.42154503,-8.224131584,21.30030823
4.312412926,21.91466713,-8.047062874,20.54896355
4.322412926,21.91466713,-8.047062874,20.54896355
4.332412926,21.91466713,-8.047062874,20.54896355
4.342412926,28.62414169,-6.74536705,21.19981003
4.352412926,29.4664135,-7.013363361,21.01317024
4.362412926,29.4664135,-7.013363361,21.01317024
4.372412926,29.71048164,-7.133004189,21.11366844
4.382412926,29.71048164,-7.133004189,21.11366844
4.392412926,29.71048164,-7.133004189,21.11366844
4.402412926,26.41795921,-7.300501823,22.68336105
4.412412926,24.69034004,-7.544569969,23.7314167
4.422412926,22.9531517,-7.5924263,25.63610268
4.432412926,22.55594254,-8.190631866,27.68914604
4.442412926,23.86721039,-9.276973724,29.378479
4.452412926,29.43770027,-11.04287624,31.77608681
4.462412926,32.17987442,-11.76072311,32.69014359
4.472412926,33.7830658,-12.42592812,32.77149963
4.482412926,34.48176956,-13.74198055,32.57050323
4.492412926,35.1756897,-15.76152229,32.05365372
4.502412926,35.19961929,-17.98684692,31.41237831
4.512412926,35.19961929,-17.98684692,31.41237831
4.522412926,35.19961929,-17.98684692,31.41237831
4.532412926,35.19961929,-17.98684692,31.41237831
4.542412926,19.98605156,-36.19622803,30.86681366
4.552412926,15.16690636,-40.62773514,31.51287651
4.562412926,15.16690636,-40.62773514,31.51287651
4.572412926,9.208778381,-46.8730011,29.68954468
4.582412926,9.208778381,-46.8730011,29.68954468
4.592412926,9.208778381,-46.8730011,29.68954468
4.602412926,9.208778381,-46.8730011,29.68954468
4.612412926,9.208778381,-46.8730011,29.68954468
4.622412926,9.208778381,-46.8730011,29.68954468
4.632412926,-14.04467297,-43.77669144,6.991229534
4.642412926,-14.04467297,-43.77669144,6.991229534
4.652412926,-14.04467297,-43.77669144,6.991229534
4.662412926,-14.04467297,-43.77669144,6.991229534
4.672412926,-25.0612278,-32.66442108,-4.269393921
4.682412926,-24.72623253,-29.97488976,-6.059225082
4.692412926,-25.38186646,-26.52443886,-8.858827591
4.702412926,-26.34378052,-23.14577293,-10.86879826
4.712412926,-26.34378052,-23.14577293,-10.86879826
4.722412926,-26.34378052,-23.14577293,-10.86879826
4.732412926,-20.2803688,-21.96850395,-6.135795593
4.742412926,-17.45205116,-21.89672089,-3.431905985
4.752412926,-14.69073486,-21.35115623,-1.857428551
4.762412926,-12.00120163,-20.3174572,-1.469791293
4.772412926,-12.00120163,-20.3174572,-1.469791293
4.782412926,-5.502295494,-15.6179533,-3.671188116
4.792412926,-3.439682484,-14.45025635,-3.733401537
4.802412926,-1.520638824,-13.43091393,-2.97726965
4.812412926,-1.520638824,-13.43091393,-2.97726965
4.822412926,1.121037364,-11.60279655,-0.77108711
4.832412926,1.121037364,-11.60279655,-0.77108711
4.842412926,1.121037364,-11.60279655,-0.77108711
4.852412926,2.269592285,-8.803194046,4.115056515
4.862412926,2.044667006,-8.181060791,4.177269936
4.872412926,1.700100541,-7.956135273,3.842274904
4.882412926,1.326820135,-7.788637638,3.665206194
4.892412926,0.963111103,-7.587640762,4.205984116
4.902412926,0.235693038,-6.372086525,6.996015072
4.912412926,0.283549488,-6.151947021,8.469993591
4.922412926,0.800399184,-6.41037178,9.76211834
4.932412926,1.824527264,-6.836294174,10.57089233
4.942412926,3.226721287,-7.367500782,10.51825047
4.952412926,4.825126648,-7.7838521,10.10189915
4.962412926,6.461817741,-6.802794933,9.766903877
4.972412926,5.758327484,-5.917450428,11.37488079
4.982412926,5.207978249,-5.673382282,14.2941246
4.992412926,5.207978249,-5.673382282,14.2941246
5.002412926,6.476174355,-6.175875187,19.70668983
5.012412926,6.868597507,-6.070590973,20.73560333
5.022412926,7.05523777,-5.572884083,21.2093811
5.032412926,7.05523777,-5.572884083,21.2093811
5.042412926,7.05523777,-5.572884083,21.2093811
5.052412926,7.811369419,-4.950749874,23.74098778
5.062412926,9.098708153,-5.261816978,24.47319221
5.072412926,11.17089272,-5.467599869,24.40619278
5.082412926,13.79821205,-5.596812248,23.30549431
5.092412926,13.79821205,-5.596812248,23.30549431
5.102412926,13.79821205,-5.596812248,23.30549431
5.112412926,15.45883083,-4.386044025,27.62214661
5.122412926,16.15753555,-5.807380676,29.88097191
5.132412926,17.03330803,-6.845865726,30.93859863
5.142412926,18.53600121,-7.319644451,30.62753105
5.152412926,20.9192524,-7.779066563,29.44069099
5.162412926,28.06900597,-7.908278942,25.75574493
5.172412926,39.61198425,-7.616354465,23.35813713
5.182412926,46.5080986,-7.999206066,22.15693855
5.192412926,42.04309082,-6.807580471,22.06122589
5.202412926,33.00779343,-6.821937561,21.13281059
5.212412926,27.74836731,-8.46819973,20.10389709
5.222412926,27.74836731,-8.46819973,20.10389709
5.232412926,25.41775894,-9.927821159,19.08934021
5.242412926,24.87219429,-10.2723875,19.23291016
5.252412926,25.01576424,-10.41117096,19.26162338
5.262412926,25.76232529,-10.36331463,19.34776497
5.272412926,26.71945381,-10.25803089,19.5152626
5.282412926,28.2747879,-10.40159988,19.96511459
5.292412926,31.63431168,-10.78445148,21.48694992
5.302412926,32.46701431,-11.3635149,22.24308014
5.312412926,32.59622574,-12.0287199,22.9274292
5.322412926,33.18486023,-13.10548973,24.10469627
5.332412926,33.99842072,-14.88574982,25.51167679
5.342412926,34.29513168,-17.15893173,26.88994217
5.352412926,31.96452141,-23.21277237,29.19662285
5.362412926,29.30370331,-27.05085945,30.40260696
5.372412926,29.30370331,-27.05085945,30.40260696
5.382412926,29.30370331,-27.05085945,30.40260696
5.392412926,29.30370331,-27.05085945,30.40260696
5.402412926,16.0378933,-47.36592484,30.09632492
5.412412926,16.0378933,-47.36592484,30.09632492
5.422412926,16.0378933,-47.36592484,30.09632492
5.432412926,5.849255085,-54.83153152,13.5284214
5.442412926,3.212364435,-56.41558075,9.608977318
5.452412926,-0.778863788,-56.75535965,5.933601856
5.462412926,-6.124429703,-56.19065475,2.746362209
5.472412926,-12.57547951,-53.19962692,-1.316650629
5.482412926,-23.89352989,-41.80500412,-10.6295166
5.492412926,-25.54457855,-36.54079437,-15.28116322
5.502412926,-25.08515549,-32.88934708,-18.6359005
5.512412926,-23.71167564,-29.56332397,-19.93281174
5.522412926,-22.51047897,-26.44308281,-18.07598114
5.532412926,-21.52463531,-23.98804665,-15.39123344
5.542412926,-21.52463531,-23.98804665,-15.39123344
5.552412926,-19.84966087,-20.53759766,-11.91685486
5.562412926,-18.37568092,-20.5184536,-9.083752632
5.572412926,-17.0548439,-19.97767639,-5.815157413
5.582412926,-15.31765461,-19.31247139,-3.269193888
5.592412926,-12.48455238,-19.03011894,-2.058425665
5.602412926,-9.302098274,-18.69033813,-1.957927108
5.612412926,-4.401597023,-16.41237068,-2.967698336
5.622412926,-2.271985054,-14.9527483,-2.479562521
5.632412926,-0.405583441,-13.50269794,-1.776072621
5.642412926,1.154536963,-12.13878918,-1.192223907
5.652412926,2.216950178,-10.87059307,-0.527019203
5.662412926,3.083152056,-9.530612946,0.296111792
5.672412926,3.083152056,-9.530612946,0.296111792
5.682412926,3.083152056,-9.530612946,0.296111792
5.692412926,3.083152056,-9.530612946,0.296111792
5.702412926,4.313062668,-4.883750916,6.19681263
5.712412926,4.791627407,-4.357329845,6.929016113
5.722412926,4.930410862,-3.59641242,7.421937466
5.732412926,4.968696117,-2.567498684,7.584649563
5.742412926,5.337191105,-0.935593665,7.852645874
5.752412926,5.815755367,-0.849452019,7.857431412
5.762412926,6.299105644,-1.179661512,8.063214302
5.772412926,6.629314899,-1.696511269,8.307282448
5.782412926,6.7202425,-2.266003132,8.781061172
5.792412926,6.466603279,-2.74935317,9.628120422
5.802412926,4.65762949,-2.069791555,12.91585827
5.812412926,3.59043026,-1.653440475,14.50947857
5.822412926,3.418147087,-2.170290232,15.72503185
5.832412926,4.064209461,-2.524427891,16.47637939
5.842412926,4.064209461,-2.524427891,16.47637939
5.852412926,5.562116146,-3.036491871,16.4524498
5.862412926,6.303891182,-3.266202927,15.92602921
5.872412926,6.303891182,-3.266202927,15.92602921
5.882412926,6.303891182,-3.266202927,15.92602921
5.892412926,5.605186939,-2.079362869,22.00858498
5.902412926,6.385247231,-2.830709219,23.81755829
5.912412926,6.385247231,-2.830709219,23.81755829
5.922412926,12.00838089,-5.06560564,22.54936218
5.932412926,17.33001709,-4.165904045,17.70150375
5.942412926,18.44985962,-3.227917671,16.18445396
5.952412926,18.97149467,-2.907279491,15.71546078
5.962412926,19.52184296,-3.337987661,16.1270256
5.972412926,20.36411667,-3.912265062,17.08415604
5.982412926,20.92403793,-4.218546391,18.40499306
5.992412926,21.30688858,-4.242474556,19.82154465
6.002412926,21.30688858,-4.242474556,19.82154465
6.012412926,21.30688858,-4.242474556,19.82154465
6.022412926,21.30688858,-4.242474556,19.82154465
6.032412926,23.93899345,-6.563512325,21.24766731
6.042412926,23.93899345,-6.563512325,21.24766731
6.052412926,26.89652252,-8.023134232,18.48156357
6.062412926,26.89652252,-8.023134232,18.48156357
6.072412926,26.89652252,-8.023134232,18.48156357
6.082412926,31.69174004,-9.750752449,15.26561069
6.092412926,31.20360374,-9.267401695,16.61994743
6.102412926,30.40440178,-8.908478737,18.17049789
6.112412926,30.14118958,-9.028120041,19.54397774
6.122412926,30.14118958,-9.028120041,19.54397774
6.132412926,31.58166885,-10.43988514,21.01795578
6.142412926,32.23730469,-11.3635149,21.48694992
6.152412926,32.45265579,-11.78943729,23.40599251
6.162412926,32.45265579,-11.78943729,23.40599251
6.172412926,32.45265579,-11.78943729,23.40599251
6.182412926,35.14697647,-13.06720448,30.18725204
6.192412926,35.88875198,-15.76152229,29.04826927
6.202412926,34.72583771,-18.89612007,28.22513771
6.212412926,31.41417122,-21.96850395,28.048069
6.222412926,31.41417122,-21.96850395,28.048069
6.232412926,23.40300179,-29.64468002,32.55136108
6.242412926,23.40300179,-29.64468002,32.55136108
6.252412926,23.40300179,-29.64468002,32.55136108
6.262412926,23.40300179,-29.64468002,32.55136108
6.272412926,23.40300179,-29.64468002,32.55136108
6.282412926,5.562116146,-49.52903748,15.21296787
6.292412926,1.805384636,-50.05545807,13.30349541
6.302412926,-1.051645517,-49.49074936,12.9637146
6.312412926,-3.190829039,-47.9019165,13.82034492
6.322412926,-3.190829039,-47.9019165,13.82034492
6.332412926,-3.190829039,-47.9019165,13.82034492
6.342412926,-3.190829039,-47.9019165,13.82034492
6.352412926,-18.50489426,-43.0827713,1.861017823
6.362412926,-21.91227341,-39.34996796,-2.924627542
6.372412926,-21.98884392,-37.31607056,-9.222537041
6.382412926,-23.01775742,-29.30489922,-18.3104763
6.392412926,-23.15175629,-26.03151703,-18.65983009
6.402412926,-24.2572403,-24.04068947,-17.22892189
6.412412926,-27.79383087,-22.11685944,-13.72582912
6.422412926,-27.40140915,-21.61915207,-7.648059368
6.432412926,-24.12802696,-23.58605194,0.099900343
6.442412926,-21.5724926,-24.9738903,5.952744484
6.452412926,-13.53260803,-25.72045135,8.307282448
6.462412926,-9.976874352,-24.62932396,6.192026615
6.472412926,-6.981060028,-22.60021019,3.684348583
6.482412926,-4.521238327,-20.33181381,1.286740422
6.492412926,-2.592623234,-18.13998795,-1.431506157
6.502412926,-0.716650367,-16.32144356,-4.068396568
6.512412926,2.853441,-13.82812214,-5.623731613
6.522412926,2.853441,-13.82812214,-5.623731613
6.532412926,2.853441,-13.82812214,-5.623731613
6.542412926,2.853441,-13.82812214,-5.623731613
6.552412926,6.275177479,-10.21974564,4.737190723
6.562412926,6.346961975,-8.884550095,7.000801086
6.572412926,5.46161747,-7.022934437,8.536993027
6.582412926,2.585444927,-3.639483213,9.470193863
6.592412926,2.585444927,-3.639483213,9.470193863
6.602412926,2.719442844,-2.935993433,8.733204842
6.612412926,3.652643681,-3.318845034,7.766504288
6.622412926,4.729413986,-3.610769272,7.192226887
6.632412926,5.279763222,-3.065205812,8.211568832
6.642412926,4.638486862,-1.758724689,13.67677593
6.652412926,4.939982414,-2.404786825,16.7156601
6.662412926,5.069194794,-2.801995277,18.73520279
6.672412926,4.494917393,-2.97427845,19.57269096
6.682412926,4.13120842,-2.935993433,18.99841309
6.692412926,4.29392004,-3.342773199,17.87857246
6.702412926,5.691328526,-2.74935317,18.0843544
6.712412926,5.691328526,-2.74935317,18.0843544
6.722412926,7.05523777,-4.017549038,21.53001976
6.722412926,7.05523777,-4.017549038,21.53001976
6.742412926,7.05523777,-4.017549038,21.53001976
6.752412926,10.76889801,-4.548755646,24.10469627
6.762412926,12.01316643,-4.055834293,23.10449791
6.772412926,13.13300705,-4.036691666,22.161726
6.782412926,14.17149258,-4.448257446,22.39143562
6.792412926,15.42054558,-4.955535889,22.50150681
6.802412926,16.26760483,-5.453242779,22.34358025
6.812412926,16.76052666,-5.802595139,21.97986984
6.822412926,16.89452362,-5.797809124,21.86022949
6.832412926,15.88475323,-5.161318302,22.97528458
6.842412926,15.9373951,-5.625525951,23.15235329
6.852412926,16.5021019,-6.601797581,22.23350906
6.862412926,17.37308884,-7.678567886,20.60639
6.872412926,18.04307938,-8.334200859,18.40977859
6.882412926,18.44507408,-8.879764557,16.552948
6.892412926,18.20579147,-9.205188751,15.50489235
6.902412926,18.20579147,-9.205188751,15.50489235
6.912412926,18.20579147,-9.205188751,15.50489235
6.922412926,18.20579147,-9.205188751,15.50489235
6.932412926,19.3639164,-10.5978117,16.99322891
6.942412926,19.3639164,-10.5978117,16.99322891
6.942412926,20.47897339,-10.47817039,15.52403545
6.962412926,20.47897339,-10.47817039,15.52403545
6.972412926,20.47897339,-10.47817039,15.52403545
6.982412926,23.03450775,-11.80379391,17.50050735
6.992412926,24.19263268,-11.94257736,18.47677803
7.002412926,25.70968246,-11.526227,19.14676857
7.012412926,27.61915588,-10.49252701,20.03689957
7.022412926,29.38505936,-9.018548965,20.78824425
7.032412926,31.11267662,-6.319444656,22.95614243
7.042412926,31.33760262,-6.21894598,23.86063004
7.052412926,31.21317482,-7.970492363,23.16192436
7.062412926,30.13640404,-9.736394882,22.11865425
7.072412926,28.07857704,-10.17667484,23.29592323
7.082412926,26.37010193,-10.3776722,27.27279472
7.092412926,26.37010193,-10.3776722,27.27279472
7.102412926,26.37010193,-10.3776722,27.27279472
7.112412926,26.37010193,-10.3776722,27.27279472
7.122412926,26.37010193,-10.3776722,27.27279472
7.132412926,23.16371918,-28.1228447,31.30230713
7.142412926,21.30688858,-34.7366066,30.41696358
7.152412926,16.98545074,-40.18745804,31.5750885
7.162412926,11.27139091,-51.64429092,30.59403229
7.172412926,11.27139091,-51.64429092,30.59403229
7.182412926,3.705285788,-54.14718246,23.74098778
7.192412926,1.566102386,-54.17589569,19.39562225
7.202412926,-0.142372951,-53.85047531,14.59083462
7.212412926,-2.099701881,-52.72106171,9.824331284
7.222412926,-7.741977692,-48.48576355,-0.632303357
7.232412926,-11.66142082,-44.09254456,-5.149952412
7.242412926,-14.93480206,-38.79483414,-9.260822296
7.252412926,-16.47578049,-35.10510254,-13.11326599
7.262412926,-17.18405533,-31.71686363,-17.87976837
7.272412926,-18.37568092,-27.66342163,-21.60778618
7.282412926,-18.37568092,-27.66342163,-21.60778618
7.292412926,-18.37568092,-27.66342163,-21.60778618
7.302412926,-22.09412766,-20.69552231,-14.57767391
7.312412926,-21.77827454,-21.02573204,-7.973483086
7.322412926,-20.78764725,-20.19781685,-1.986641049
7.332412926,-18.66760635,-20.01596069,1.736590981
7.342412926,-15.90628815,-20.16431618,3.287140131
7.352412926,-15.90628815,-20.16431618,3.287140131
7.362412926,-15.90628815,-20.16431618,3.287140131
7.372412926,-4.755734921,-17.94856262,-0.345164657
7.382412926,-2.482553482,-16.69472313,-1.594218135
7.392412926,-0.185443759,-15.354743,-2.254637241
7.402412926,1.676172256,-14.22533035,-2.359921217
7.412412926,4.073780537,-11.88514996,-0.594018221
7.422412926,4.073780537,-11.88514996,-0.594018221
7.432412926,5.131408215,-9.119047165,2.435295343
7.442412926,5.131408215,-9.119047165,2.435295343
7.452412926,5.834897995,-5.726024628,5.273182869
7.462412926,6.021538258,-4.352544308,6.105885029
7.472412926,5.863611698,-3.610769272,6.115456581
7.482412926,6.212964058,-3.859622955,5.488536835
7.492412926,5.940182209,-3.907479286,5.742176056
7.502412926,4.906482697,-3.27577424,6.795018196
7.512412926,3.733999729,-2.725425005,8.613563538
7.522412926,3.18843627,-2.495713949,10.83410263
7.532412926,3.384647608,-2.567498684,12.32243824
7.542412926,4.523631096,-3.802195072,12.2171545
7.552412926,4.523631096,-3.802195072,12.2171545
7.562412926,4.32263422,-1.993221283,12.82014561
7.572412926,4.29392004,-1.792224169,14.22712517
7.582412926,4.758127689,-1.964507341,16.07917023
7.592412926,4.758127689,-1.964507341,16.07917023
7.602412926,5.581258774,-2.672782898,18.53420639
7.612412926,5.581258774,-2.672782898,18.53420639
7.622412926,5.581258774,-2.672782898,18.53420639
7.632412926,12.23330593,-2.36650157,16.61037636
7.642412926,13.42014599,-2.342573404,17.06022644
7.652412926,13.61157131,-2.902493954,17.85943031
7.662412926,12.46301651,-3.639483213,19.04148483
7.672412926,12.46301651,-3.639483213,19.04148483
7.682412926,6.303891182,-4.625326157,23.47777748
7.692412926,6.303891182,-4.625326157,23.47777748
7.702412926,3.609572887,-3.878765583,26.75115967
7.712412926,3.55693078,-4.007977962,27.16751099
7.722412926,4.595416069,-4.744967461,26.98565483
7.732412926,6.547959328,-5.970092297,26.31566429
7.742412926,10.8550396,-8.382058144,24.44447708
7.752412926,12.73579884,-9.15733242,23.16192436
7.762412926,14.68355656,-9.49232769,21.60180473
7.772412926,14.68355656,-9.49232769,21.60180473
7.782412926,19.13899231,-9.611968994,17.89292908
7.792412926,21.2973175,-10.10010433,16.97887039
7.802412926,21.2973175,-10.10010433,16.97887039
7.812412926,21.2973175,-10.10010433,16.97887039
7.822412926,21.48874283,-11.55972576,22.53500557
7.832412926,20.00040817,-11.57408333,23.22413826
7.842412926,19.3256321,-12.01436234,22.3627224
7.852412926,19.31606102,-12.69870949,20.59203339
7.862412926,21.88116646,-13.62712479,19.44826508
7.872412926,24.12563515,-13.64626789,20.71167374
7.882412926,26.61895561,-13.19641685,21.70708847
7.892412926,26.61895561,-13.19641685,21.70708847
7.902412926,31.62952614,-11.95693493,20.45803452
7.912412926,34.22334671,-11.79422283,19.31905174
7.922412926,35.68775177,-11.51665497,19.3142662
7.932412926,36.3433876,-12.52164078,24.51626205
7.942412926,35.77867889,-13.43091393,27.69393158
7.952412926,36.05146408,-15.0149622,29.18705177
7.962412926,36.99423599,-17.14936066,29.00519753
7.972412926,37.78386688,-20.38445663,27.90928459
7.982412926,37.13780212,-24.64368057,27.382864
7.992412926,30.67239761,-36.37808228,30.9720974
8.002412926,30.67239761,-36.37808228,30.9720974
8.012412926,20.50768661,-52.44349289,33.70470047
8.022412926,16.44467354,-60.64130402,31.68515968
8.032412926,9.108279228,-63.60840607,28.15813828
8.042412926,5.432903767,-68.82476044,22.17608261
8.052412926,1.20717907,-71.19364929,15.89252949
8.062412926,1.20717907,-71.19364929,15.89252949
8.072412926,1.20717907,-71.19364929,15.89252949
8.082412926,-26.08057022,-55.06602859,3.937987804
8.092412926,-28.64089012,-48.4283371,2.684148788
8.102412926,-27.69333267,-44.5136795,-0.11545369
8.112412926,-24.86980247,-42.56113815,-6.829713821
8.122412926,-23.46282196,-34.44946671,-22.43570328
8.132412926,-23.46282196,-34.44946671,-22.43570328
8.142412926,-25.80778885,-25.84966278,-29.40838814
8.152412926,-26.50649261,-24.16990089,-28.65225601
8.162412926,-27.87040138,-24.15075874,-23.70389938
8.172412926,-27.63111877,-23.48555374,-15.55394554
8.182412926,-25.57329178,-23.99761772,-6.695715904
8.192412926,-25.57329178,-23.99761772,-6.695715904
8.202412926,-25.57329178,-23.99761772,-6.695715904
8.212412926,-12.09691525,-24.25125694,-2.063211441
8.222412926,-12.09691525,-24.25125694,-2.063211441
8.232412926,-6.832705021,-20.94916153,-5.264808178
8.242412926,-6.832705021,-20.94916153,-5.264808178
8.252412926,-6.832705021,-20.94916153,-5.264808178
8.262412926,1.106680512,-15.26860142,-3.896113396
8.272412926,2.087737799,-14.15833187,-0.699302435
8.282412926,2.796013355,-12.78963661,3.119642496
8.292412926,3.408575773,-11.59801102,6.321238995
8.302412926,3.772284985,-10.5355978,8.182855606
8.312412926,3.667000771,-9.449256897,8.575278282
8.322412926,2.681157827,-7.357929707,6.574878216
8.332412926,1.925025821,-6.458228111,5.249254704
8.342412926,1.259821177,-6.137589931,4.316053867
8.352412926,0.881755173,-5.946164131,4.971687317
8.362412926,0.843469977,-5.568098068,7.024729252
8.372412926,0.987039328,-5.424529076,10.03011417
8.382412926,1.901097536,-6.544369698,15.38046551
8.392412926,2.690729141,-8.051848412,16.49552155
8.402412926,2.690729141,-8.051848412,16.49552155
8.412412926,3.690928936,-10.78923702,16.74916077
8.422412926,3.690928936,-10.78923702,16.74916077
8.432412926,3.882354736,-10.84666538,22.45364952
8.442412926,3.882354736,-10.84666538,22.45364952
8.452412926,3.882354736,-10.84666538,22.45364952
8.462412926,11.70209885,-11.98086262,27.55514717
8.472412926,14.32941818,-11.88993549,23.71227455
8.482412926,16.3393898,-11.84207916,20.4053936
8.492412926,17.56451416,-11.56929779,19.45783615
8.502412926,17.60758591,-11.21994495,21.34337997
8.512412926,17.21994781,-12.09093285,28.29692268
8.522412926,17.90429497,-13.10548973,29.59861755
8.532412926,18.14836311,-12.99063396,29.02433968
8.542412926,18.14836311,-12.99063396,29.02433968
8.552412926,18.14836311,-12.99063396,29.02433968
8.562412926,17.79901123,-11.15294647,20.37668037
8.572412926,17.79901123,-11.15294647,20.37668037
8.582412926,17.79901123,-11.15294647,20.37668037
8.592412926,17.79901123,-11.15294647,20.37668037
8.602412926,17.79901123,-11.15294647,20.37668037
8.612412926,21.57009888,-12.54556942,20.39103699
8.622412926,21.57009888,-12.54556942,20.39103699
8.632412926,24.27398872,-14.30190086,18.85963058
8.642412926,24.27398872,-14.30190086,18.85963058
8.652412926,26.42274475,-15.75195122,20.11346817
8.652412926,26.42274475,-15.75195122,20.11346817
8.672412926,25.20240402,-16.46979904,21.38644981
8.682412926,24.0442791,-16.42672729,21.55873299
8.692412926,23.33600235,-16.1013031,21.36252213
8.702412926,23.33600235,-16.1013031,21.36252213
8.712412926,23.881567,-15.87159252,22.00858498
8.722412926,24.6855545,-15.95773411,22.89392853
8.732412926,25.47039986,-16.31187248,23.47299194
8.742412926,26.20738983,-16.55115509,24.24826622
8.752412926,26.20738983,-16.55115509,24.24826622
8.762412926,28.32743073,-18.86262131,23.09971237
8.772412926,28.32743073,-18.86262131,23.09971237
8.782412926,28.32743073,-18.86262131,23.09971237
8.792412926,28.32743073,-18.86262131,23.09971237
8.802412926,28.32743073,-18.86262131,23.09971237
8.812412926,25.99682236,-42.21178436,28.57448959
8.822412926,22.86701012,-49.08396912,27.93799973
8.832412926,22.86701012,-49.08396912,27.93799973
8.842412926,22.86701012,-49.08396912,27.93799973
8.852412926,5.341976643,-66.29315186,24.31526566
8.862412926,2.599801779,-66.32665253,20.79302979
8.872412926,1.451246977,-68.12126923,15.15075493
8.882412926,-1.506281853,-71.11708069,8.934201241
8.892412926,-7.028916359,-69.82017517,4.789832592
8.902412926,-7.028916359,-69.82017517,4.789832592
8.912412926,-24.57309151,-51.11787033,-4.087539196
8.922412926,-27.27219582,-43.93940353,-8.50469017
8.932412926,-27.40140915,-39.10111618,-13.81675625
8.942412926,-26.31028175,-34.85624695,-18.28176308
8.952412926,-25.51586342,-29.03211784,-20.47837448
8.962412926,-26.84148788,-18.30748558,-20.41616058
8.972412926,-28.82752991,-14.64168167,-20.21037865
8.982412926,-27.44926453,-14.06740475,-18.66940117
8.992412926,-23.52025032,-16.41237068,-14.59681606
9.002412926,-23.52025032,-16.41237068,-14.59681606
9.012412926,-17.47119522,-20.22174454,-4.929812908
9.022412926,-17.47119522,-20.22174454,-4.929812908
9.032412926,-17.47119522,-20.22174454,-4.929812908
9.042412926,-17.47119522,-20.22174454,-4.929812908
9.052412926,-17.47119522,-20.22174454,-4.929812908
9.062412926,-0.979860902,-14.34975719,-5.193023205
9.072412926,-0.979860902,-14.34975719,-5.193023205
9.082412926,1.657029629,-11.49272728,-4.389034748
9.092412926,3.241078377,-9.497113228,-1.086939692
9.092412926,1.657029629,-11.49272728,-4.389034748
9.112412926,3.609572887,-7.989634991,2.033301115
9.122412926,3.657429457,-7.544569969,3.421138287
9.132412926,3.528217077,-7.319644451,4.287340164
9.142412926,3.083152056,-7.118647575,4.579264164
9.152412926,1.915454507,-5.965306759,4.904688358
9.162412926,1.049252748,-5.008177757,4.942973614
9.172412926,0.034695927,-4.108476639,4.741976261
9.182412926,0.034695927,-4.108476639,4.741976261
9.192412926,-0.606580555,-3.060420275,4.469194412
9.202412926,-0.515653253,-3.007778168,4.579264164
9.212412926,-0.836291492,-3.122633457,5.225326538
9.222412926,-0.836291492,-3.122633457,5.225326538
9.232412926,-0.836291492,-3.122633457,5.225326538
9.242412926,0.154337063,-2.002792597,10.95852947
9.252412926,0.470189661,-1.768295884,11.87258816
9.262412926,1.168893814,-2.342573404,11.26481056
9.272412926,1.747956991,-3.687339783,10.82453156
9.282412926,1.747956991,-3.687339783,10.82453156
9.292412926,1.747956991,-3.687339783,10.82453156
9.302412926,3.360719442,-5.405386448,18.13221169
9.312412926,3.255435228,-4.285545349,21.34337997
9.322412926,3.547359467,-4.960321426,23.07099724
9.332412926,5.069194794,-6.434299946,23.32463646
9.342412926,7.127022266,-7.893921852,22.72643089
9.352412926,7.127022266,-7.893921852,22.72643089
9.362412926,11.81216908,-11.57886887,23.53999138
9.372412926,12.46301651,-12.53121185,25.2628231
9.382412926,13.36271763,-13.48355579,27.20100975
9.392412926,14.53998661,-14.3689003,28.2490654
9.402412926,15.78904057,-15.03888988,28.05764008
9.412412926,15.78904057,-15.03888988,28.05764008
9.422412926,17.44965935,-15.7806654,22.82692909
9.432412926,18.08136368,-16.13958931,22.31486511
9.442412926,18.08136368,-16.13958931,22.31486511
9.452412926,18.08136368,-16.13958931,22.31486511
9.462412926,22.69951248,-18.06820297,24.87039948
9.472412926,25.16890526,-18.3601284,24.86561394
9.482412926,25.16890526,-18.3601284,24.86561394
9.492412926,31.49552727,-18.69990921,20.5441761
9.502412926,31.49552727,-18.69990921,20.5441761
9.512412926,32.84029388,-18.29791451,19.55354881
9.522412926,31.9884491,-18.02991867,19.75933075
9.532412926,30.63889694,-18.0203476,19.66361809
9.542412926,28.2747879,-18.15434456,18.21835327
9.552412926,27.50429916,-18.26441574,17.67757607
9.562412926,27.09273529,-18.10170364,17.89771461
9.572412926,27.19323349,-17.62313843,19.16591072
9.582412926,28.22693253,-17.38864136,20.86481476
9.592412926,30.658041,-17.61835289,21.32423782
9.602412926,34.53441238,-18.77647972,18.69213295
9.612412926,34.53441238,-18.77647972,18.69213295
9.622412926,34.53441238,-18.77647972,18.69213295
9.632412926,34.53441238,-18.77647972,18.69213295
9.642412926,37.11387634,-32.10449982,17.78764534
9.652412926,33.89313507,-37.40699768,22.25265312
9.662412926,28.95434952,-41.52265167,28.32085037
9.672412926,28.95434952,-41.52265167,28.32085037
9.682412926,28.95434952,-41.52265167,28.32085037
9.692412926,11.91745281,-52.18028259,30.01975441
9.702412926,11.85523987,-56.2337265,23.80320168
9.712412926,9.59641552,-60.23931122,18.2470665
9.722412926,4.815555573,-64.34060669,13.26999664
9.732412926,4.815555573,-64.34060669,13.26999664
9.742412926,-16.55713654,-55.98965836,14.7774744
9.752412926,-17.23191261,-55.00859833,12.18365479
9.762412926,-17.1936264,-53.84090042,6.617949009
9.772412926,-18.56710815,-50.27559662,0.367896467
9.782412926,-20.51007843,-45.88716125,-6.341578007
9.792412926,-21.75913239,-42.64727783,-13.15155125
9.802412926,-21.75913239,-42.64727783,-13.15155125
9.812412926,-25.7886467,-29.28575706,-21.96670914
9.822412926,-25.04208565,-25.95973206,-19.48295975
9.832412926,-23.44846535,-23.44726944,-15.02273846
9.842412926,-20.91685867,-21.36072731,-9.083752632
9.852412926,-18.18904114,-19.63789558,-5.599802971
9.862412926,-18.18904114,-19.63789558,-5.599802971
9.872412926,-18.18904114,-19.63789558,-5.599802971
9.882412926,-18.18904114,-19.63789558,-5.599802971
9.892412926,-8.096115112,-17.67099571,-11.9216404
9.902412926,-4.425525665,-17.71885109,-11.15115166
9.912412926,-1.066002488,-17.20200157,-10.25145054
9.922412926,1.618744493,-16.33101463,-8.78225708
9.932412926,3.57128787,-14.44068432,-6.867999077
9.942412926,2.590230465,-13.00977707,-5.518447399
9.952412926,1.652244091,-11.77508068,-3.623331785
9.962412926,0.963111103,-11.07637596,-1.900499344
9.972412926,0.431904495,-10.6983099,-0.493519664
9.982412926,-0.094516493,-10.44467068,0.449252456
9.992412926,-0.094516493,-10.44467068,0.449252456
10.00241293,-0.094516493,-10.44467068,0.449252456
10.01241293,-1.257428288,-9.784252167,2.349153519
10.02241293,-2.08534503,-9.583254814,2.861217737
10.03241293,-2.740978241,-9.521040916,3.622135162
10.04241293,-3.238685369,-9.966106415,4.244269371
10.05241293,-3.568894863,-10.10010433,5.86181736
10.06241293,-3.224328518,-9.918250084,10.09232807
10.07241293,-3.004188776,-9.611968994,12.19322586
10.08241293,-3.004188776,-9.611968994,12.19322586
10.09241293,-2.204986095,-10.09053326,16.46680641
10.10241293,-0.410369098,-9.487542152,19.62054825
10.11241293,3.121437073,-9.415757179,22.17129707
10.12241293,9.850054741,-10.861022,21.51087761
10.13241293,9.850054741,-10.861022,21.51087761
10.14241293,9.189635277,-11.47837067,21.12802505
10.15241293,7.002595425,-12.58385468,24.12862587
10.16241293,5.523830891,-13.60798264,28.57448959
10.17241293,6.122036934,-13.53619766,33.10171127
10.18241293,6.122036934,-13.53619766,33.10171127
10.19241293,6.122036934,-13.53619766,33.10171127
10.20241293,6.122036934,-13.53619766,33.10171127
10.21241293,17.1433773,-12.0670042,23.29592323
10.22241293,17.12423515,-12.14357471,23.99941254
10.23241293,17.12423515,-12.14357471,23.99941254
10.24241293,18.44985962,-13.80897903,26.28695107
10.25241293,20.38804626,-14.67039585,25.33939362
10.26241293,21.3212471,-15.14896011,25.21018028
10.27241293,22.06302071,-15.7184515,26.01416969
10.28241293,23.14936256,-16.37408447,27.50250435
10.29241293,23.92942238,-16.89572144,28.49313354
10.30241293,24.6855545,-17.26900101,28.29692268
10.31241293,26.97787857,-18.57069588,24.13819695
10.32241293,28.10250473,-19.56132507,22.66900444
10.33241293,28.6002121,-20.52323914,22.45364952
10.34241293,28.42314339,-20.9204483,23.72184563
10.35241293,27.61437035,-21.14058876,25.00918388
10.36241293,25.92025185,-20.94916153,25.325037
10.37241293,23.5800705,-20.1547451,25.01875496
10.38241293,21.61795616,-19.46082687,24.12384033
10.39241293,22.13959122,-19.67139435,24.58804703
10.40241293,23.22114754,-20.5184536,25.61217499
10.41241293,24.3457737,-21.83450699,26.36830711
10.42241293,24.3457737,-21.83450699,26.36830711
10.43241293,26.24567604,-23.46641159,29.23490906
10.44241293,26.24567604,-23.46641159,29.23490906
10.45241293,26.24567604,-23.46641159,29.23490906
10.46241293,28.95913696,-33.72204971,27.78007317
10.47241293,25.5756855,-38.56990814,26.32523727
10.48241293,20.37368774,-42.67120743,26.93779945
10.49241293,15.38226032,-46.8730011,28.67020226
10.50241293,15.38226032,-46.8730011,28.67020226
10.51241293,15.38226032,-46.8730011,28.67020226
10.52241293,15.38226032,-46.8730011,28.67020226
10.53241293,15.38226032,-46.8730011,28.67020226
10.54241293,-5.799005508,-58.43512344,12.37508011
10.55241293,-7.713263988,-56.13801193,12.50429249
10.56241293,-9.158528328,-56.46821976,10.92981529
10.57241293,-14.33659649,-56.33900833,6.393023968
10.58241293,-14.33659649,-56.33900833,6.393023968
10.59241293,-21.03650093,-50.46223831,-6.140581131
10.60241293,-24.7597332,-45.33681107,-13.54397392
10.61241293,-28.50689316,-39.8333168,-20.44487572
10.62241293,-32.74697495,-32.87020493,-24.20639229
10.63241293,-35.13979721,-26.9312191,-23.79961205
10.64241293,-35.13979721,-26.9312191,-23.79961205
10.65241293,-35.13979721,-26.9312191,-23.79961205
10.66241293,-30.21536827,-19.74796486,2.93778801
10.67241293,-27.30569649,-20.43709755,2.344367981
10.68241293,-24.30988121,-21.12623024,-2.010569334
10.69241293,-20.14636993,-21.69572258,-6.791429043
10.70241293,-11.41256714,-21.87279129,-11.34736347
10.71241293,-11.41256714,-21.87279129,-11.34736347
10.72241293,-5.61715126,-18.80040741,-11.35214901
10.73241293,-3.032902718,-17.47478294,-11.09850979
10.74241293,-0.802792013,-16.29273033,-9.471389771
10.75241293,0.776470959,-15.10110378,-6.265007973
10.76241293,0.776470959,-15.10110378,-6.265007973
10.77241293,2.987439156,-12.24885941,3.894917011
10.78241293,3.619144201,-11.34915733,6.06760025
10.79241293,3.915854216,-10.3776722,6.416952133
10.80241293,3.915854216,-10.3776722,6.416952133
10.81241293,2.480160713,-8.506484032,3.78484726
10.82241293,1.537388563,-7.467999458,2.928216696
10.83241293,1.537388563,-7.467999458,2.928216696
10.84241293,1.537388563,-7.467999458,2.928216696
10.85241293,1.537388563,-7.467999458,2.928216696
10.86241293,2.183450699,-4.883750916,9.273982048
10.87241293,3.126222849,-4.922036171,10.05882835
10.88241293,4.035495281,-5.204389095,10.13061333
10.89241293,4.035495281,-5.204389095,10.13061333
10.90241293,4.035495281,-5.204389095,10.13061333
10.91241293,2.370090723,-4.625326157,15.00718498
10.92241293,1.633101463,-5.333601475,17.39043617
10.93241293,1.791027784,-6.099305153,19.73540306
10.94241293,2.240878344,-6.635297298,20.92224312
10.95241293,2.51844573,-7.123433113,20.96531296
10.96241293,2.51844573,-7.123433113,20.96531296
10.97241293,3.939782381,-6.084948063,22.29093742
10.98241293,3.939782381,-6.084948063,22.29093742
10.99241293,4.925625324,-6.865008354,25.31068039
11.00241293,7.213163853,-8.554341316,26.54537582
11.01241293,10.05105114,-9.980463028,26.97129822
11.02241293,13.860425,-9.865608215,26.70808792
11.03241293,13.860425,-9.865608215,26.70808792
11.04241293,17.62672806,-9.166903496,27.32543564
11.05241293,19.43570137,-9.300901413,27.71785927
11.06241293,20.79961014,-9.611968994,27.9475708
11.07241293,21.95773697,-9.918250084,27.45943451
11.08241293,23.24507523,-10.50209904,25.77488708
11.09241293,24.47020149,-11.1433754,22.01337051
11.10241293,24.47020149,-11.1433754,22.01337051
11.11241293,25.64268303,-11.74158096,21.9990139
11.12241293,25.95853615,-12.38285732,22.28615189
11.13241293,25.60918427,-12.82313633,22.00379944
11.14241293,24.38884544,-13.11506081,21.44866371
11.15241293,24.38884544,-13.11506081,21.44866371
11.16241293,24.38884544,-13.11506081,21.44866371
11.17241293,24.38884544,-13.11506081,21.44866371
11.18241293,23.48435783,-15.66102409,16.79223061
11.19241293,23.71406937,-16.41715622,16.44287872
11.20241293,23.71406937,-16.41715622,16.44287872
11.21241293,23.79542542,-17.1924305,19.07019806
11.22241293,23.79542542,-17.1924305,19.07019806
11.23241293,23.79542542,-17.1924305,19.07019806
11.24241293,29.72005272,-14.58425426,17.99821281
11.25241293,31.79702377,-14.1870451,16.89751625
11.26241293,33.55335617,-14.34975719,17.33779526
11.27241293,34.84069443,-15.22074509,18.48156357
11.28241293,34.84069443,-15.22074509,18.48156357
11.28241293,35.81696701,-18.54676819,23.77448845
11.30241293,35.58725357,-22.45185471,30.04846764
11.31241293,35.27140045,-25.15574455,31.24009514
11.32241293,34.17548752,-28.7880497,30.14896774
11.33241293,32.38087082,-34.54039383,27.33500862
11.34241293,32.38087082,-34.54039383,27.33500862
11.35241293,17.98086548,-56.37729263,25.46860695
11.36241293,12.23330593,-63.01498413,27.04786873
11.37241293,7.332805157,-68.66683197,27.03829765
11.38241293,0.972682416,-70.36573792,25.4638195
11.39241293,-2.209771633,-75.36194611,20.3431797
11.40241293,-8.239685059,-79.07082367,13.41356564
11.41241293,-30.55514908,-69.33682251,4.301696777
11.42241293,-39.91108704,-60.11009598,1.999801517
11.43241293,-39.91108704,-60.11009598,1.999801517
11.44241293,-39.91108704,-60.11009598,1.999801517
11.45241293,-40.85864258,-41.73800659,-7.700701237
11.46241293,-41.10749817,-34.25804138,-9.65803051
11.47241293,-41.10749817,-34.25804138,-9.65803051
11.48241293,-41.10749817,-34.25804138,-9.65803051
11.49241293,-30.39722252,-17.26900101,-3.915256023
11.50241293,-25.24308205,-18.07777596,-1.723430514
11.51241293,-21.65384865,-19.72403717,-1.082154036
11.52241293,-20.09372902,-20.11167526,-0.34037903
11.53241293,-18.46660805,-19.56611061,0.669392109
11.54241293,-11.39821053,-18.58983994,-2.895913601
11.55241293,-6.794419765,-17.94377708,-4.690530777
11.56241293,-2.583052158,-16.57986832,-4.752744198
11.57241293,0.618544638,-14.64646721,-3.178266764
11.58241293,2.609373093,-12.4929266,-1.417149186
11.59241293,3.681357622,-10.42552853,0.023330022
11.60241293,4.523631096,-7.568498135,0.784247637
11.61241293,4.265206337,-6.783652306,0.276969224
11.62241293,3.408575773,-6.070590973,-0.613160789
11.63241293,2.21216464,-5.271388054,-1.197009563
11.64241293,1.015753269,-4.567898273,-1.259222865
11.65241293,-0.185443759,-4.208974838,-1.005583763
11.66241293,-1.094716311,-4.04147768,0.085543409
11.67241293,-1.094716311,-4.04147768,0.085543409
11.68241293,-1.094716311,-4.04147768,0.085543409
11.69241293,-1.094716311,-3.567698479,9.891330719
11.70241293,-0.726221681,-4.295116425,11.40359497
11.71241293,-0.190229401,-5.395814896,11.93001556
11.72241293,0.565902531,-6.668796539,11.87258816
11.73241293,2.791227579,-8.109275818,12.32243824
11.74241293,3.820141315,-8.051848412,13.30349541
11.75241293,4.609772682,-8.147561073,14.52862072
11.76241293,4.609772682,-8.147561073,14.52862072
11.77241293,7.342376232,-8.74576664,17.81635857
11.78241293,8.577073097,-9.348757744,18.45285034
11.79241293,9.404989243,-10.02831936,18.13221169
11.80241293,9.404989243,-10.02831936,18.13221169
11.81241293,9.404989243,-10.02831936,18.13221169
11.82241293,10.39083195,-12.10528946,20.94617081
11.83241293,11.12782192,-12.83270741,25.10489655
11.84241293,12.37208939,-12.77528,28.37827873
11.85241293,13.59242916,-12.61735344,29.06262589
11.86241293,13.59242916,-12.61735344,29.06262589
11.87241293,17.18166351,-12.25843048,22.67378998
11.88241293,17.18166351,-12.25843048,22.67378998
11.89241293,17.41137314,-11.43051338,22.00379944
11.90241293,17.55015755,-11.50229836,23.26721001
11.91241293,18.0335083,-11.43051338,24.76990128
11.92241293,18.0335083,-11.43051338,24.76990128
11.93241293,18.0335083,-11.43051338,24.76990128
11.94241293,19.31127548,-11.35872936,21.9750843
11.95241293,19.44527245,-11.77508068,21.22852516
11.96241293,19.69891167,-12.4929266,21.22373772
11.97241293,20.01955032,-13.35434341,22.15693855
11.98241293,20.61775589,-14.00519085,23.09971237
11.99241293,22.97707939,-14.87617874,22.14736748
12.00241293,24.57069969,-15.02931881,20.31925201
12.01241293,25.72882462,-15.05803299,19.0366993
12.02241293,25.77189636,-14.70389557,18.90270042
12.03241293,24.546772,-14.16311741,19.68754578
12.04241293,24.546772,-14.16311741,19.68754578
12.05241293,20.64647102,-13.16770267,23.25285149
12.06241293,20.64647102,-13.16770267,23.25285149
12.07241293,20.41675949,-10.93759251,23.25763702
12.07241293,20.64647102,-13.16770267,23.25285149
12.09241293,21.96252251,-8.927620888,20.6686039
12.10241293,22.96272278,-8.248059273,20.06082726
12.11241293,24.54198456,-8.300702095,20.23311043
12.12241293,24.54198456,-8.300702095,20.23311043
12.13241293,24.54198456,-8.300702095,20.23311043
12.14241293,37.75036621,-18.17348862,24.89911461
12.15241293,39.75555038,-24.70110893,25.67438889
12.16241293,38.71706772,-33.104702,26.86122894
12.17241293,32.99343491,-41.25944138,29.34497833
12.18241293,19.04806519,-59.6219635,36.84408569
12.19241293,14.2002058,-69.65267181,34.7001152
12.20241293,14.2002058,-69.65267181,34.7001152
12.21241293,14.2002058,-69.65267181,34.7001152
12.22241293,-6.43549633,-79.37232208,11.59502029
12.23241293,-15.72921944,-73.00740814,6.684948444
12.24241293,-24.32902336,-62.81398773,2.200798512
12.25241293,-24.32902336,-62.81398773,2.200798512
12.26241293,-25.91785812,-41.46043777,-8.667402267
12.27241293,-23.77388954,-38.18227005,-14.14218044
12.28241293,-20.77807617,-35.76551819,-18.6359005
12.29241293,-18.25604057,-33.0424881,-22.65584373
12.30241293,-18.82074738,-28.63490868,-26.5800724
12.31241293,-20.40000916,-19.76232147,-25.67558479
12.32241293,-19.83051682,-17.50828362,-22.36870384
12.33241293,-18.66282082,-16.27358627,-17.46820259
12.34241293,-17.02134323,-15.2973156,-12.41934776
12.35241293,-15.35593891,-14.93360615,-8.638688087
12.36241293,-13.86281776,-14.93839169,-6.0927248
12.37241293,-12.34576797,-15.03410435,-3.814757586
12.38241293,-9.536594391,-15.34995747,-1.307079315
12.39241293,-8.091329575,-15.2542448,-1.216152072
12.40241293,-6.215356827,-14.81396484,-1.57028985
12.41241293,-6.215356827,-14.81396484,-1.57028985
12.42241293,-3.43011117,-12.92363548,-3.522833109
12.43241293,-2.482553482,-11.83729362,-3.728615999
12.44241293,-2.482553482,-11.83729362,-3.728615999
12.45241293,-2.482553482,-11.83729362,-3.728615999
12.46241293,-2.482553482,-11.83729362,-3.728615999
12.47241293,0.427118838,-10.54038334,5.187041283
12.48241293,1.130608678,-10.66959572,7.06301403
12.49241293,1.647458434,-10.73180962,8.364709854
12.50241293,1.762313843,-10.44467068,9.345767021
12.51241293,1.331605792,-8.908478737,10.13539886
12.52241293,1.164108157,-8.295916557,9.556335449
12.53241293,1.054038405,-8.066205025,8.78584671
12.54241293,0.800399184,-7.965706348,8.575278282
12.55241293,0.470189661,-7.92742157,9.235696793
12.56241293,0.187836573,-8.20498848,10.2837534
12.57241293,-0.908076167,-9.951749802,12.93500137
12.58241293,-1.066002488,-10.94716358,14.68176174
12.59241293,-0.510867655,-11.87557888,16.14616966
12.60241293,0.857826889,-12.80877972,16.94058609
12.61241293,0.857826889,-12.80877972,16.94058609
12.62241293,4.040280819,-13.67019558,17.74936104
12.63241293,6.074180126,-12.90927792,19.19941139
12.64241293,6.811169624,-12.83270741,19.61097527
12.65241293,7.983652592,-13.47877026,19.75454521
12.66241293,9.481559753,-14.33540058,19.78326035
12.67241293,11.03210926,-15.06760406,20.72124672
12.68241293,12.74058437,-15.5174551,22.9034996
12.69241293,14.70748425,-16.2018013,25.16711044
12.70241293,14.70748425,-16.2018013,25.16711044
12.71241293,14.70748425,-16.2018013,25.16711044
12.72241293,14.70748425,-16.2018013,25.16711044
12.73241293,14.70748425,-16.2018013,25.16711044
12.74241293,26.18346214,-17.22114372,28.57448959
12.75241293,26.18346214,-17.22114372,28.57448959
12.76241293,26.18346214,-17.22114372,28.57448959
12.77241293,26.18346214,-17.22114372,28.57448959
12.78241293,26.18346214,-17.22114372,28.57448959
12.79241293,25.84846687,-16.52722549,23.98505592
12.80241293,25.19283295,-16.49372673,22.54457664
12.81241293,24.17827606,-16.24487305,20.75953102
12.82241293,23.28336143,-15.99601936,19.74975967
12.83241293,23.28336143,-15.99601936,19.74975967
12.84241293,23.28336143,-15.99601936,19.74975967
12.85241293,20.80918121,-15.85723591,19.34776497
12.86241293,20.80918121,-15.85723591,19.34776497
12.87241293,18.78006935,-14.97667694,20.67817497
12.88241293,18.6364994,-14.00997639,23.22413826
12.89241293,18.6364994,-14.00997639,23.22413826
12.90241293,22.88136673,-12.08614731,28.03849792
12.91241293,25.20240402,-11.39701462,27.71785927
12.92241293,27.62394142,-11.43051338,27.66521645
12.93241293,30.56711197,-12.93320656,28.18685341
12.94241293,33.90270615,-14.70389557,29.77090073
12.95241293,36.88895035,-16.54636765,32.41736221
12.96241293,36.88895035,-16.54636765,32.41736221
12.97241293,36.88895035,-16.54636765,32.41736221
12.98241293,34.92205048,-34.72224808,39.94039917
12.99241293,30.30868721,-41.38386917,41.54358673
13.00241293,25.79103851,-50.46702194,40.3088913
13.01241293,20.35933113,-60.67480469,36.44687653
13.02241293,20.35933113,-60.67480469,36.44687653
13.03241293,20.35933113,-60.67480469,36.44687653
13.03241293,1.881955028,-73.42855072,19.17069626
13.05241293,-6.665207386,-68.83911133,4.15334177
13.06241293,-12.9822588,-63.39783478,0.477966309
13.07241293,-19.38545227,-56.13801193,0.899103105
13.08241293,-24.05624199,-48.48097992,2.732005358
13.09241293,-24.05624199,-48.48097992,2.732005358
13.10241293,-20.84985924,-41.68057632,-3.479762316
13.11241293,-20.84985924,-41.68057632,-3.479762316
13.12241293,-18.27996826,-36.67957687,-16.276577
13.13241293,-17.44726563,-32.17628479,-21.95235252
13.14241293,-16.552351,-28.40998268,-26.27379036
13.15241293,-16.5906353,-22.25085831,-26.13500786
13.16241293,-16.5906353,-22.25085831,-26.13500786
13.17241293,-14.67159176,-20.00638962,-13.74975681
13.18241293,-13.15454292,-19.4895401,-7.375277519
13.19241293,-11.80020523,-19.31247139,-2.565704107
13.20241293,-10.76650524,-19.08275986,1.396810174
13.21241293,-8.349754333,-19.1258316,4.584050179
13.22241293,-6.78484869,-19.15933037,4.196412563
13.23241293,-5.138586521,-18.7860508,3.004786968
13.24241293,-3.410968781,-18.02513313,1.468594909
13.25241293,-3.410968781,-18.02513313,1.468594909
13.26241293,-3.410968781,-18.02513313,1.468594909
13.27241293,2.62851572,-15.15853119,-2.948555708
13.28241293,2.62851572,-15.15853119,-2.948555708
13.29241293,7.543373585,-13.30170155,-0.196809664
13.30241293,7.811369419,-12.09093285,2.866003275
13.31241293,7.811369419,-12.09093285,2.866003275
13.32241293,7.792226791,-10.01396275,9.345767021
13.33241293,7.323233604,-8.736195564,11.86301613
13.34241293,7.323233604,-8.736195564,11.86301613
13.35241293,4.284348965,-6.75972414,16.67259026
13.36241293,5.408975601,-7.716853142,16.58166313
13.37241293,7.586444378,-8.267202377,15.65803337
13.38241293,9.395418167,-7.630711555,14.16491222
13.39241293,10.69232845,-6.43908596,13.2269249
13.40241293,11.58724403,-5.443671703,12.35593796
13.41241293,12.89372444,-4.630111694,13.27956772
13.42241293,13.22393417,-5.118247509,14.38505173
13.43241293,13.80778313,-5.170889854,14.74876022
13.44241293,13.79821205,-4.926821709,14.92582989
13.45241293,13.3340044,-4.567898273,14.88754463
13.46241293,12.52044487,-4.271188259,15.37567997
13.47241293,12.52044487,-4.271188259,15.37567997
13.48241293,10.07976532,-3.682554007,19.0749836
13.49241293,10.16590691,-3.778266907,19.29033852
13.50241293,10.52961636,-3.400201082,19.10848427
13.51241293,10.98425198,-2.921636343,18.55813408
13.52241293,11.72602749,-2.634497643,18.2470665
13.53241293,12.51565838,-2.404786825,18.37627983
13.54241293,12.51565838,-2.404786825,18.37627983
13.55241293,14.30549049,-3.318845034,23.04706955
13.56241293,15.2291193,-4.634897232,24.89911461
13.57241293,16.25803375,-5.615954876,25.70310211
13.58241293,17.06680679,-6.123233318,25.54517555
13.59241293,17.66022682,-6.223731518,24.884758
13.60241293,17.66022682,-6.223731518,24.884758
13.61241293,17.66022682,-6.223731518,24.884758
13.62241293,18.17707634,-7.4010005,25.33460808
13.63241293,18.76571083,-8.669196129,25.64089012
13.64241293,19.76112556,-10.15753174,25.04268265
13.65241293,21.09153557,-11.75593758,23.31027985
13.66241293,22.37408829,-13.23470211,21.60180473
13.67241293,24.66641235,-14.67518139,21.42952156
13.68241293,25.25026131,-14.62253952,22.59243393
13.69241293,25.25026131,-14.62253952,22.59243393
13.70241293,25.90110779,-14.47896957,24.52583313
13.71241293,26.11646271,-14.73739433,23.71706009
13.72241293,26.63331223,-15.04846191,22.58764839
13.73241293,26.63331223,-15.04846191,22.58764839
13.74241293,26.63331223,-15.04846191,22.58764839
13.75241293,30.33261681,-17.02014732,25.68395996
13.76241293,31.58166885,-16.55115509,28.05764008
13.77241293,33.61557007,-15.92423439,28.56491852
13.78241293,33.61557007,-15.92423439,28.56491852
13.79241293,33.61557007,-15.92423439,28.56491852
13.80241293,42.42115784,-21.7866497,23.21935272
13.81241293,42.81357956,-28.4626255,22.79821587
13.82241293,40.70789337,-36.99542999,24.04248428
13.83241293,35.13261795,-44.32225418,29.00041199
13.84241293,28.3992157,-51.33800888,36.00181198
13.85241293,22.40758705,-58.24369431,40.53860474
13.86241293,14.79841137,-66.14000702,34.824543
13.87241293,16.53560066,-73.74440002,24.91347122
13.88241293,13.43928814,-81.63593292,12.93978691
13.89241293,3.939782381,-83.51190186,3.942773581
13.90241293,-6.995417118,-77.49634552,3.708276987
13.91241293,-14.5328083,-71.78707123,6.661019802
13.92241293,-21.31885338,-59.33003616,3.220141172
13.93241293,-21.4097805,-54.3768959,-2.618346214
13.94241293,-21.4097805,-54.3768959,-2.618346214
13.95241293,-20.85464668,-52.45306396,-17.33899117
13.96241293,-24.02752876,-46.95435715,-22.7898407
13.97241293,-27.06641388,-40.44109726,-26.99163818
13.98241293,-29.15773964,-34.88496017,-28.3364048
13.99241293,-29.15773964,-34.88496017,-28.3364048
14.00241293,-29.15773964,-34.88496017,-28.3364048
14.01241293,-29.15773964,-34.88496017,-28.3364048
14.02241293,-18.23689842,-29.13261604,2.320439816
14.03241293,-14.34138298,-30.2572422,4.402195454
14.04241293,-10.55593681,-30.51566696,3.339782238
14.05241293,-10.55593681,-30.51566696,3.339782238
14.06241293,-10.55593681,-30.51566696,3.339782238
14.07241293,4.509274483,-22.14078712,-8.452047348
14.08241293,7.117451191,-19.4273262,-7.499704361
14.09241293,8.452646255,-16.73300934,-4.858027935
14.10241293,9.07477951,-13.73240948,-1.761715651
14.11241293,9.352347374,-10.8179512,0.765105069
14.12241293,9.352347374,-10.8179512,0.765105069
14.13241293,7.868797302,-5.280959606,5.737390518
14.14241293,7.562515736,-4.232903481,6.531807423
14.15241293,6.926024914,-3.682554007,6.857231617
14.16241293,6.251249313,-3.476771355,7.354938507
14.17241293,6.088537216,-3.438486099,8.168498039
14.18241293,6.667600155,-2.65364027,9.805189133
14.19241293,7.820940971,-1.907079697,10.18804073
14.20241293,9.615557671,-1.529013634,10.48953629
14.21241293,11.04646587,-0.86380899,10.49910736
14.22241293,12.08495045,-0.461814761,10.20718288
14.23241293,12.08495045,-0.461814761,10.20718288
14.24241293,11.71167088,-0.35174492,10.42253685
14.25241293,9.098708153,0.059820566,13.72463226
14.26241293,9.763913155,-0.385244459,15.17946911
14.27241293,11.29053402,-1.313659668,16.3519516
14.28241293,13.5972147,-1.849651933,16.77308846
14.29241293,15.62154293,-1.576870084,16.01217079
14.30241293,16.96152306,-1.351944804,15.0598278
14.31241293,15.94218063,-0.055034921,14.99761391
14.32241293,14.02792263,0.538385093,16.11266899
14.33241293,12.41037464,0.538385093,17.55314827
14.34241293,11.66381359,0.174676046,18.89791489
14.35241293,11.56810093,-0.313459754,19.56790543
14.36241293,12.18066406,-0.614955425,18.98884201
14.37241293,12.78365517,-1.117448211,17.89292908
14.38241293,12.75494099,-1.289731383,18.83091545
14.39241293,12.58265781,-1.433300734,20.26660919
14.40241293,12.58265781,-1.433300734,20.26660919
14.41241293,12.58265781,-1.433300734,20.26660919
14.42241293,15.47318745,-2.720639229,22.2000103
14.43241293,15.47318745,-2.720639229,22.2000103
14.44241293,15.47318745,-2.720639229,22.2000103
14.45241293,21.62752724,-5.726024628,19.42912102
14.46241293,23.04407883,-7.204789162,20.52981949
14.47241293,24.45105743,-8.319844246,21.90808678
14.48241293,26.67159843,-9.075976372,23.17149544
14.49241293,30.16511917,-9.836894035,22.5637188
14.50241293,34.42434311,-10.65523911,19.56790543
14.51241293,34.93640518,-10.93759251,18.58206177
14.52241293,34.65884018,-11.27737331,19.03191376
14.53241293,33.61557007,-11.79422283,20.99402809
14.54241293,32.38565826,-12.37807178,23.29592323
14.55241293,31.16531944,-12.66999626,25.57389069
14.56241293,30.00240707,-12.64606762,26.62673187
14.57241293,30.00240707,-12.64606762,26.62673187
14.58241293,29.47598648,-12.56471157,22.93700027
14.59241293,30.46661377,-13.08156109,21.9750843
14.60241293,32.05545044,-13.62233925,22.53022003
14.61241293,33.80699539,-13.99083424,23.1906395
14.62241293,35.39104462,-14.41197109,23.38206482
14.63241293,35.39104462,-14.41197109,23.38206482
14.64241293,35.39104462,-14.41197109,23.38206482
14.65241293,37.59722519,-28.32384109,21.35773659
14.66241293,34.01277924,-33.99483109,22.8030014
14.67241293,28.81078148,-39.5174675,25.79402924
14.68241293,24.0442791,-45.87280273,29.6416893
14.69241293,19.60798454,-53.20441055,31.85265732
14.70241293,9.87398243,-63.98168564,25.44946289
14.71241293,6.815955162,-66.35057831,20.49153519
14.72241293,1.049252748,-64.33582306,16.58166313
14.73241293,-2.78883481,-62.77570343,14.42333698
14.74241293,-4.54995203,-61.80900192,13.4662075
14.75241293,-5.430510998,-61.33043671,10.86281681
14.76241293,-6.468996048,-62.87620163,4.813760757
14.77241293,-9.550951958,-63.78547287,1.612164259
14.78241293,-15.48036575,-58.2676239,1.210170031
14.79241293,-20.12244225,-51.33322525,0.717248559
14.80241293,-21.81656075,-47.04050064,-2.895913601
14.81241293,-21.81656075,-47.04050064,-2.895913601
14.82241293,-23.75953293,-39.73760605,-13.75932884
14.83241293,-29.79901695,-26.47179604,-16.28614998
14.84241293,-30.06222725,-22.98784637,-15.18066502
14.85241293,-28.97588539,-21.48515511,-14.22832203
14.86241293,-26.76491737,-20.91087723,-9.902098656
14.87241293,-23.0416851,-21.8488636,-3.388834953
14.88241293,-19.19881248,-23.38027,3.023929596
14.89241293,-10.85743237,-26.95036125,9.451051712
14.90241293,-6.789634228,-28.34777069,7.364510059
14.91241293,-3.377469063,-28.07977295,3.803989887
14.92241293,-0.056231331,-26.28037071,0.133399859
14.93241293,-0.056231331,-26.28037071,0.133399859
14.94241293,5.466403484,-20.87259102,-5.073382378
14.95241293,5.466403484,-20.87259102,-5.073382378
14.95241293,7.734799385,-15.00060558,-6.667002201
14.97241293,8.098507881,-10.7605238,-2.728415966
14.98241293,8.23729229,-9.635896683,0.205184549
14.99241293,7.658228874,-8.482556343,4.162913322
15.00241293,6.327819347,-6.970292568,9.709476471
15.01241293,5.279763222,-5.611168861,15.89731503
15.02241293,5.279763222,-5.611168861,15.89731503
15.03241293,8.557929993,-7.24307394,21.67837524
15.04241293,12.67837048,-8.238488197,18.04128456
15.05241293,15.69811249,-6.630511761,14.94497204
15.06241293,15.69811249,-6.630511761,14.94497204
15.07241293,17.35394669,-2.720639229,15.81595993
15.08241293,17.35394669,-2.720639229,15.81595993
15.09241293,17.35394669,-2.720639229,15.81595993
15.10241293,17.35394669,-2.720639229,15.81595993
15.11241293,13.70249844,-2.816352367,20.95574188
15.12241293,12.72622681,-3.256631613,21.37687874
15.13241293,12.01316643,-3.897907972,23.11885452
15.14241293,12.05623722,-4.352544308,25.47817802
15.15241293,12.05623722,-4.352544308,25.47817802
15.16241293,14.4634161,-4.165904045,24.90868568
15.17241293,14.4634161,-4.165904045,24.90868568
15.18241293,17.06202126,-3.950550079,19.58704758
15.19241293,18.12443542,-3.864408493,17.6823616
15.20241293,19.15334892,-4.390829563,16.8544445
15.21241293,19.38784599,-5.233103275,17.49093437
15.22241293,18.53600121,-5.582455158,18.5102787
15.23241293,18.02393723,-6.094519138,19.71626091
15.24241293,18.01915169,-6.515655994,20.64946175
15.25241293,18.47378731,-6.73100996,20.91267204
15.26241293,19.19641876,-6.836294174,20.11825371
15.27241293,19.57448578,-6.778866768,18.52942085
15.28241293,20.24447632,-7.625925541,15.46660709
15.29241293,19.89990997,-7.956135273,14.40419388
15.30241293,19.36870384,-8.267202377,14.24148178
15.31241293,19.36870384,-8.267202377,14.24148178
15.32241293,19.14856339,-9.554540634,17.32343864
15.33241293,19.9908371,-10.24845982,19.12762642
15.34241293,19.9908371,-10.24845982,19.12762642
15.35241293,19.93340874,-12.42592812,19.31905174
15.36241293,18.65564156,-12.71306705,19.02234268
15.37241293,18.65564156,-12.71306705,19.02234268
15.38241293,18.25364685,-12.95713425,20.66381836
15.39241293,19.24427605,-12.9379921,21.17588234
15.40241293,20.5938282,-12.65085316,20.77867317
15.41241293,23.07279205,-12.14836025,18.5102787
15.42241293,24.32663155,-12.4498558,17.42393684
15.43241293,25.35554504,-12.46421337,16.86880112
15.44241293,26.16910553,-12.32064342,17.1798687
15.45241293,27.71486855,-12.47378445,18.09392738
15.46241293,29.45205688,-13.00499153,19.15155411
15.47241293,33.66342545,-15.03410435,19.41954994
15.48241293,35.54896927,-16.65165329,18.69691849
15.49241293,35.54896927,-16.65165329,18.69691849
15.50241293,37.31966019,-24.4091835,18.29970932
15.51241293,35.54896927,-30.74537849,18.62991905
15.52241293,31.9262352,-37.94777298,20.19960976
15.53241293,31.9262352,-37.94777298,20.19960976
15.54241293,31.9262352,-37.94777298,20.19960976
15.55241293,12.88415337,-68.37490845,30.03889656
15.56241293,9.036494255,-70.46144867,26.85165787
15.57241293,6.495316982,-73.23712158,20.89831543
15.58241293,4.523631096,-76.5248642,14.25105381
15.59241293,-0.463011175,-76.38607788,9.996614456
15.60241293,-14.01595879,-65.21638489,10.33160973
15.61241293,-15.3415823,-60.03352737,9.537193298
15.62241293,-13.90110302,-57.46842194,4.521836758
15.63241293,-12.58026505,-55.42016602,-1.115653515
15.64241293,-14.11167145,-54.06582642,-6.556932449
15.65241293,-19.12224197,-50.48138046,-11.16072273
15.66241293,-34.82394409,-35.52623749,-20.87558365
15.67241293,-34.82394409,-35.52623749,-20.87558365
15.68241293,-34.82394409,-35.52623749,-20.87558365
15.69241293,-34.82394409,-35.52623749,-20.87558365
15.70241293,-36.63770294,-23.78705025,-10.47637558
15.71241293,-30.04787064,-25.98844719,1.315454245
15.72241293,-24.34338188,-28.94119072,8.369495392
15.73241293,-24.34338188,-28.94119072,8.369495392
15.74241293,-24.34338188,-28.94119072,8.369495392
15.75241293,0.541974306,-33.24827194,2.162513494
15.76241293,5.217549801,-30.4582386,-1.517647743
15.77241293,8.462217331,-26.72064972,-4.3986063
15.78241293,10.73539925,-22.58585358,-5.556732178
15.79241293,10.73539925,-22.58585358,-5.556732178
15.80241293,10.73539925,-22.58585358,-5.556732178
15.81241293,10.73539925,-22.58585358,-5.556732178
15.82241293,10.73539925,-22.58585358,-5.556732178
15.83241293,10.73539925,-22.58585358,-5.556732178
15.84241293,6.658029079,-8.114061356,11.44666576
15.85241293,5.772684574,-6.994220734,13.09292698
15.86241293,5.772684574,-6.994220734,13.09292698
15.87241293,7.371089935,-5.477170944,15.41875076
15.88241293,8.098507881,-5.357530117,14.79661655
15.89241293,8.988637924,-5.319244862,13.61934853
15.90241293,10.23290634,-5.290530682,11.97308636
15.91241293,11.15653515,-4.754538536,11.30309582
15.92241293,11.15653515,-4.754538536,11.30309582
15.93241293,12.25244808,-4.366901398,16.91187286
15.94241293,12.8315115,-5.070391178,18.9744854
15.95241293,13.50628757,-5.558526993,19.59183311
15.96241293,13.88913918,-6.01316309,18.55334854
15.97241293,13.88913918,-5.812166214,17.97907066
15.98241293,13.55414391,-4.97467804,18.40977859
15.99241293,13.55414391,-4.97467804,18.40977859
16.00241293,13.55414391,-4.97467804,18.40977859
16.01241293,14.15713501,-5.357530117,23.81277275
16.02241293,14.15713501,-5.357530117,23.81277275
16.03241293,15.67897034,-5.534598827,21.91287231
16.04241293,16.84666824,-5.659025669,21.07538414
16.05241293,16.84666824,-5.659025669,21.07538414
16.06241293,18.45464516,-6.051448345,20.7691021
16.07241293,18.91406631,-6.544369698,20.24746704
16.08241293,19.24906158,-6.769295216,19.60140419
16.09241293,19.49791527,-7.089933395,18.79741669
16.10241293,19.6654129,-7.238288403,17.96471405
16.11241293,19.6654129,-7.238288403,17.96471405
16.12241293,19.79462624,-7.147361279,17.9838562
16.13241293,19.95255089,-7.573283672,17.61057663
16.14241293,20.50768661,-8.28155899,16.93580055
16.15241293,20.98146629,-9.080761909,16.3136673
16.16241293,21.19681931,-9.626325607,15.80160236
16.17241293,21.41695976,-9.927821159,15.79681683
16.18241293,21.41695976,-9.927821159,15.79681683
16.19241293,21.41695976,-9.927821159,15.79681683
16.20241293,24.01077843,-9.406186104,17.51007843
16.20241293,24.01077843,-9.406186104,17.51007843
16.22241293,25.69532585,-8.472985268,16.52423477
16.23241293,26.10210609,-8.606983185,14.91147232
16.24241293,26.10210609,-8.606983185,14.91147232
16.25241293,24.39841652,-9.377471924,18.0077858
16.26241293,24.15434837,-9.032905579,21.4725914
16.27241293,24.15434837,-9.032905579,21.4725914
16.28241293,26.36053085,-8.401200294,23.25285149
16.29241293,28.67199707,-8.257631302,21.35773659
16.30241293,30.80160904,-7.678567886,19.28076744
16.31241293,35.78346634,-9.334401131,17.18465424
16.32241293,38.24328613,-10.89930725,17.55314827
16.33241293,39.79862213,-12.48335552,18.75913048
16.34241293,40.70789337,-14.69910908,20.77867317
16.35241293,41.37310028,-18.35534286,23.4299202
16.36241293,41.82295227,-23.91626167,25.64567566
16.37241293,39.76512146,-42.44628143,26.8181572
16.38241293,35.69253922,-52.9459877,27.61257553
16.39241293,29.12184715,-62.43113708,26.92822838
16.40241293,21.5222435,-70.49016571,24.44447708
16.41241293,13.22393417,-76.33343506,21.93201447
16.42241293,13.22393417,-76.33343506,21.93201447
16.43241293,-6.574280262,-86.04829407,16.52423477
16.44241293,-6.574280262,-86.04829407,16.52423477
16.45241293,-6.574280262,-86.04829407,16.52423477
16.46241293,-47.56811905,-40.2209549,-5.293521881
16.47241293,-47.56811905,-40.2209549,-5.293521881
16.48241293,-37.23590851,-29.10868835,-14.05603886
16.49241293,-32.69433212,-23.55255318,-10.99801064
16.50241293,-32.69433212,-23.55255318,-10.99801064
16.51241293,-20.11765671,-17.03450394,-2.670988321
16.52241293,-20.11765671,-17.03450394,-2.670988321
16.53241293,-15.80100441,-14.55554008,-3.149552822
16.54241293,-13.5469656,-13.38784313,-3.934398651
16.55241293,-11.03928757,-12.36371422,-4.288536549
16.56241293,-8.488538742,-11.50708389,-4.039682865
16.57241293,-8.488538742,-11.50708389,-4.039682865
16.58241293,-8.488538742,-11.50708389,-4.039682865
16.59241293,-2.434697151,-9.449256897,-0.546161771
16.60241293,-2.094916344,-8.760123253,0.578464866
16.61241293,-1.836491346,-8.018348694,1.516451359
16.62241293,-1.563709617,-7.405786037,1.803590059
16.63241293,-1.563709617,-7.405786037,1.803590059
16.64241293,-1.013360381,-6.386443615,1.138385415
16.65241293,-1.051645517,-6.017949104,1.01874423
16.66241293,-1.252642632,-5.735595703,0.784247637
16.67241293,-1.611566067,-5.40060091,0.501894534
16.68241293,-1.903490424,-5.079962254,0.382253408
16.69241293,-1.903490424,-5.079962254,0.382253408
16.70241293,-1.903490424,-5.079962254,0.382253408
16.71241293,-1.372283816,-5.099104881,1.305882931
16.72241293,-1.133001566,-5.166104317,1.473380566
16.73241293,-1.209571838,-5.166104317,1.526022673
16.74241293,-1.482353687,-5.304887772,1.645663738
16.75241293,-1.712064624,-5.443671703,2.047657967
16.76241293,-2.511267424,-5.539384365,4.478765965
16.77241293,-2.401197433,-5.606383324,6.488736629
16.78241293,-1.769492388,-6.099305153,8.254639626
16.79241293,-0.592223585,-6.93679285,9.245268822
16.80241293,1.087537885,-7.802994728,9.862616539
16.81241293,2.145165443,-8.429914474,10.92024422
16.82241293,2.145165443,-8.429914474,10.92024422
16.83241293,2.145165443,-8.429914474,10.92024422
16.84241293,2.145165443,-8.429914474,10.92024422
16.85241293,5.351547718,-13.11506081,30.64667511
16.86241293,9.266205788,-14.61296749,30.75674438
16.87241293,13.01815128,-15.23031616,28.82812881
16.88241293,16.13360596,-14.96232033,26.82294273
16.89241293,19.48834419,-14.59861088,25.94238472
16.90241293,20.74696922,-15.1154604,27.43550682
16.91241293,22.50329971,-15.94337749,29.22055244
16.92241293,24.77169609,-16.56072617,29.79961586
16.93241293,26.89173698,-16.78086472,28.97169876
16.94241293,28.44707108,-16.47458458,27.45943451
16.95241293,30.74418259,-16.05344772,24.43969154
16.96241293,31.87837982,-16.35015678,23.11406898
16.97241293,32.9551506,-16.35494232,22.30529404
16.98241293,34.07498932,-16.3262291,20.89352989
16.99241293,34.72105408,-16.06780434,19.29512405
17.00241293,35.13261795,-15.75195122,18.01257133
17.01241293,35.21876144,-15.7806654,17.27079582
17.02241293,35.21876144,-15.7806654,17.27079582
17.03241293,35.21876144,-15.7806654,17.27079582
17.04241293,29.59084129,-15.79502201,19.15633965
17.05241293,28.12164879,-15.90509224,19.78326035
17.06241293,27.59044075,-15.97209072,19.88854408
17.07241293,27.82493782,-15.84766483,19.55354881
17.08241293,27.82493782,-15.84766483,19.55354881
17.09241293,28.78206635,-15.38824272,19.86461449
17.10241293,30.08376312,-15.89552116,21.52044868
17.11241293,31.22753143,-16.24008751,23.23849487
17.12241293,32.04109192,-16.61815262,23.71227455
17.13241293,32.30430222,-17.25942993,23.04228401
17.14241293,31.87837982,-17.84327888,22.45364952
17.15241293,30.61018372,-22.39442635,23.20021057
17.16241293,28.68156815,-25.89273453,24.85125732
17.17241293,26.41795921,-29.98446083,26.82294273
17.18241293,23.59442711,-34.94717407,28.50270462
17.19241293,19.81376839,-39.65146255,29.68475914
17.20241293,15.04247952,-43.11627197,30.06282616
17.21241293,6.600601196,-47.92105865,26.06681252
17.22241293,6.600601196,-47.92105865,26.06681252
17.23241293,6.600601196,-47.92105865,26.06681252
17.24241293,-4.5930233,-51.4767952,16.78265953
17.25241293,-8.153543472,-52.27120972,12.45165062
17.26241293,-12.89133167,-51.59643555,7.340581894
17.27241293,-12.89133167,-51.59643555,7.340581894
17.28241293,-27.83690262,-36.89971924,-3.666402578
17.28241293,-27.83690262,-36.89971924,-3.666402578
17.30241293,-28.21975327,-31.56372261,-11.08893871
17.31241293,-27.6215477,-29.57289505,-13.38604832
17.32241293,-27.83690262,-28.13720131,-15.56351662
17.33241293,-29.56451988,-25.19402885,-14.85524082
17.34241293,-30.35415077,-20.79123688,-6.585646152
17.35241293,-28.47817802,-20.27917099,-1.388435364
17.36241293,-25.80300331,-20.22653008,2.114656925
17.37241293,-22.15155602,-20.07817459,4.148556232
17.38241293,-17.83011818,-20.09731674,4.732405186
17.39241293,-13.60917854,-19.96331978,3.153141975
17.40241293,-5.473581791,-17.60399628,-3.192623615
17.41241293,-2.07098794,-15.7375946,-5.824728489
17.42241293,0.896112084,-14.21575928,-6.714858532
17.43241293,2.963510752,-13.10070419,-5.21695137
17.44241293,4.121636868,-12.07657623,-2.09671092
17.45241293,4.600201607,-10.99501991,1.296311617
17.46241293,4.590630054,-10.07139015,4.612763882
17.47241293,3.566502094,-8.516056061,8.522636414
17.48241293,3.566502094,-8.516056061,8.522636414
17.49241293,1.49431777,-7.200003147,7.967501163
17.50241293,1.006181955,-7.085147858,6.412166595
17.51241293,0.608973384,-7.061219692,4.856831551
17.52241293,0.374476731,-7.156932354,3.957130432
17.53241293,0.374476731,-7.156932354,3.957130432
17.54241293,0.451047063,-6.836294174,6.818946362
17.55241293,1.001396298,-6.769295216,9.321838379
17.56241293,1.757528186,-6.42472887,11.89651585
17.57241293,2.427518606,-6.23330307,14.00698566
17.58241293,3.083152056,-6.443871498,15.01197147
17.59241293,3.805784464,-6.912864685,15.08375549
17.60241293,3.805784464,-6.912864685,15.08375549
17.61241293,3.805784464,-6.912864685,15.08375549
17.62241293,3.805784464,-6.912864685,15.08375549
17.63241293,6.174678802,-7.429714203,24.6981163
17.64241293,8.17986393,-8.324629784,26.05723953
17.65241293,8.17986393,-8.324629784,26.05723953
17.66241293,8.17986393,-8.324629784,26.05723953
17.67241293,16.39203072,-8.640482903,24.47797775
17.68241293,17.31087494,-8.659625053,25.15275383
17.68241293,16.39203072,-8.640482903,24.47797775
17.70241293,20.7948246,-10.78445148,27.31107903
17.71241293,22.67079735,-11.39701462,27.70350266
17.72241293,24.61855507,-11.21515942,27.30150795
17.73241293,24.61855507,-11.21515942,27.30150795
17.74241293,24.61855507,-11.21515942,27.30150795
17.75241293,24.61855507,-11.21515942,27.30150795
17.76241293,27.69094086,-10.77009487,23.37727928
17.77241293,27.77708244,-11.15294647,22.19043922
17.78241293,27.9732933,-11.39701462,20.73560333
17.79241293,27.9732933,-11.39701462,20.73560333
17.80241293,27.9732933,-11.39701462,20.73560333
17.81241293,28.85863686,-11.97129154,16.25623894
17.82241293,28.44228554,-11.49272728,16.37587929
17.83241293,27.76272392,-10.72223854,16.84487343
17.84241293,26.96352196,-10.23888779,17.36172295
17.85241293,26.96352196,-10.23888779,17.36172295
17.86241293,23.35035896,-10.24845982,21.18545341
17.87241293,22.74258232,-10.17667484,22.66900444
17.88241293,22.83350945,-9.956535339,24.41576385
17.89241293,23.97249413,-10.00917721,25.29632187
17.90241293,26.2408886,-9.755537987,25.69831657
17.91241293,28.55714226,-8.870193481,25.20539474
17.92241293,32.95993423,-6.453442574,24.48754883
17.93241293,34.44348526,-5.592026711,23.96591377
17.94241293,36.12324524,-6.084948063,24.11905479
17.95241293,37.86043549,-7.286144733,24.93261337
17.96241293,39.9565506,-9.79860878,25.77010155
17.97241293,42.27758789,-14.11047554,26.00459862
17.98241293,42.27758789,-14.11047554,26.00459862
17.99241293,37.54936981,-33.23391342,33.34577942
18.00241293,31.80180931,-39.46482468,35.06861115
18.01241293,26.31267357,-45.02095795,34.8867569
18.02241293,22.73779678,-50.90251541,32.45564651
18.03241293,19.4644165,-59.36353683,26.63630295
18.04241293,12.08495045,-68.52326202,17.95035744
18.05241293,12.08495045,-68.52326202,17.95035744
18.06241293,12.08495045,-68.52326202,17.95035744
18.07241293,-35.19244003,-49.28018188,15.87338734
18.07241293,12.08495045,-68.52326202,17.95035744
18.09241293,-33.91945648,-46.3322258,5.407180786
18.10241293,-30.13401222,-44.8151741,-5.154737949
18.11241293,-30.13401222,-44.8151741,-5.154737949
18.12241293,-32.95275879,-29.73082161,-15.6496582
18.13241293,-32.89532852,-27.44328308,-7.164709091
18.14241293,-32.71826172,-25.99323273,3.794418573
18.15241293,-30.97628593,-25.06003189,12.78186035
18.16241293,-27.31048203,-25.24667168,17.19901085
18.17241293,-23.25704002,-25.50509644,15.56710625
18.18241293,-12.46062374,-22.86342049,3.55992198
18.19241293,-6.717849731,-20.48974037,-1.709073544
18.20241293,-1.70249331,-18.02991867,-4.202394962
18.21241293,2.360519648,-15.43131351,-3.862613916
18.22241293,5.198407173,-13.01934814,-2.728415966
18.23241293,6.686742783,-10.94237804,-1.484148264
18.24241293,7.452445984,-7.726424217,1.315454245
18.25241293,6.993024349,-6.683153629,2.28215456
18.26241293,5.935396671,-6.008377552,2.574079037
18.27241293,5.935396671,-6.008377552,2.574079037
18.28241293,3.336791277,-4.97467804,2.459223509
18.29241293,2.13559413,-4.500899315,2.310868502
18.30241293,1.403390527,-4.15633297,2.100300074
18.31241293,0.910468996,-3.873979807,1.942373753
18.31241293,0.910468996,-3.873979807,1.942373753
18.33241293,1.379462242,-3.079562664,3.330210924
18.34241293,1.470389485,-2.519642353,4.47397995
18.35241293,1.546959877,-2.04586339,6.129813194
18.36241293,1.470389485,-1.816152334,7.881359577
18.37241293,1.508674622,-2.400001049,10.63310528
18.38241293,2.082952023,-3.002992392,11.44187927
18.39241293,2.848655462,-3.706482172,11.83908844
18.40241293,3.882354736,-4.34775877,12.32243824
18.41241293,5.035695076,-4.634897232,14.34198093
18.42241293,5.035695076,-4.634897232,14.34198093
18.43241293,5.035695076,-4.634897232,14.34198093
18.44241293,5.035695076,-4.634897232,14.34198093
18.45241293,5.035695076,-4.634897232,14.34198093
18.46241293,12.81236839,-4.548755646,20.05125618
18.47241293,12.81236839,-4.548755646,20.05125618
18.48241293,12.37208939,-5.223531723,20.11346817
18.49241293,11.47238827,-5.553741455,23.75534439
18.50241293,11.63031483,-6.994220734,33.3936348
18.51241293,13.07557964,-8.047062874,35.92523956
18.52241293,14.88455296,-9.123832703,35.45624924
18.53241293,16.39203072,-9.588040352,32.75714493
18.54241293,17.9330101,-9.343972206,29.20140839
18.55241293,19.52184296,-9.310472488,26.16731071
18.56241293,19.52184296,-9.310472488,26.16731071
18.57241293,19.52184296,-9.310472488,26.16731071
18.58241293,27.00180626,-13.42612743,27.36372185
18.59241293,29.08356285,-14.18225956,26.24388123
18.60241293,30.44268608,-14.2061882,23.90369987
18.61241293,31.65823936,-14.14875984,21.50130653
18.62241293,32.82593918,-14.31625748,18.97927094
18.63241293,32.82593918,-14.31625748,18.97927094
18.64241293,32.82593918,-14.31625748,18.97927094
18.65241293,32.82593918,-14.31625748,18.97927094
18.66241293,33.52942657,-14.13918877,16.41895103
18.67241293,32.13680267,-14.26361561,16.42852211
18.68241293,30.94517899,-14.10568905,17.49572182
18.69241293,30.94517899,-14.10568905,17.49572182
18.70241293,30.94517899,-14.10568905,17.49572182
18.71241293,31.65823936,-12.73699474,22.83650017
18.72241293,33.00779343,-12.2919302,23.44427872
18.73241293,34.49612808,-12.0717907,23.27199554
18.74241293,36.63052368,-13.41655636,23.45384979
18.75241293,38.72663879,-15.71366596,23.11406898
18.76241293,40.98546219,-24.90210533,23.56870461
18.77241293,39.03292084,-31.86043358,25.00918388
18.78241293,34.01756287,-38.77090454,27.17708206
18.79241293,27.40380096,-45.63830566,29.27319336
18.80241293,20.66082764,-52.34299469,30.50310516
18.81241293,14.18584919,-58.13841248,29.34976387
18.82241293,5.437689304,-64.55596161,20.89831543
18.83241293,5.437689304,-64.55596161,20.89831543
18.84241293,5.437689304,-64.55596161,20.89831543
18.85241293,5.437689304,-64.55596161,20.89831543
18.86241293,-14.70509148,-59.12903976,4.660620213
18.87241293,-18.59582138,-54.18547058,2.243869543
18.88241293,-21.26621056,-50.49573517,0.01375873
18.89241293,-21.26621056,-50.49573517,0.01375873
18.90241293,-21.26621056,-50.49573517,0.01375873
18.91241293,-36.71427536,-37.58406448,-15.22852135
18.92241293,-39.77230072,-32.98984528,-14.07996655
18.93241293,-39.59044647,-31.31487083,-8.863613129
18.94241293,-37.5613327,-30.78844833,-1.503290772
18.95241293,-31.26342392,-30.10410118,8.58006382
18.95241293,-37.5613327,-30.78844833,-1.503290772
18.97241293,-23.46282196,-30.32424164,5.560321808
18.98241293,-18.27518272,-30.10410118,1.152742267
18.99241293,-12.87697506,-29.03690338,-3.278765202
19.00241293,-8.124829292,-26.98386002,-6.111867428
19.01241293,-0.831505895,-21.71007919,-4.044468403
19.02241293,1.676172256,-19.26461601,-1.225723386
19.03241293,3.657429457,-17.05364609,1.291526079
19.04241293,5.150550842,-15.30210114,3.03350091
19.05241293,6.107679844,-13.56969738,4.019343853
19.06241293,6.605386734,-11.73679543,4.459623337
19.07241293,6.265605927,-9.923035622,3.689134359
19.08241293,6.265605927,-9.923035622,3.689134359
19.09241293,6.265605927,-9.923035622,3.689134359
19.10241293,1.412961721,-2.76371026,2.751147747
19.11241293,0.953539848,-1.591227055,4.82333231
19.12241293,1.63788712,-0.95952189,7.986643791
19.13241293,2.953939438,-0.739382207,10.42253685
19.14241293,2.953939438,-0.739382207,10.42253685
19.15241293,6.758527756,-1.074377418,10.64746284
19.16241293,7.241877556,-1.160519004,11.30788136
19.17241293,7.203592777,-1.725225091,12.76750374
19.18241293,7.576872826,-2.682354212,15.14596939
19.19241293,8.639286041,-3.610769272,18.46720695
19.20241293,10.58225822,-4.204189301,20.77867317
19.21241293,15.03290844,-3.893122435,21.06581306
19.22241293,15.89910984,-3.017349243,20.8696003
19.23241293,15.15254974,-2.165504456,21.39123535
19.24241293,13.26221943,-2.002792597,22.67378998
19.25241293,11.77866936,-2.567498684,24.37269402
19.26241293,10.74975586,-3.567698479,25.66960335
19.27241293,10.80718327,-5.151747227,27.09572601
19.28241293,12.29551888,-5.429314613,27.67478943
19.29241293,14.01835155,-4.97467804,28.08156776
19.30241293,15.54497242,-4.405186653,27.89492798
19.31241293,16.9040947,-4.304687977,26.62673187
19.32241293,17.85643959,-4.543970108,24.97568512
19.33241293,19.05285072,-4.869394302,23.54477692
19.34241293,19.05285072,-4.869394302,23.54477692
19.35241293,19.05285072,-4.869394302,23.54477692
19.36241293,19.05285072,-4.869394302,23.54477692
19.37241293,19.05285072,-4.869394302,23.54477692
19.38241293,40.1192627,-10.10967541,33.0059967
19.39241293,33.46242905,-8.803194046,31.02952576
19.40241293,33.46242905,-8.803194046,31.02952576
19.41241293,33.46242905,-8.803194046,31.02952576
19.42241293,23.94377899,-12.92842102,11.68594742
19.43241293,23.62792778,-13.62712479,15.13639832
19.44241293,23.82413864,-14.20140266,19.5152626
19.45241293,25.6139698,-15.09631824,23.28635216
19.46241293,28.31307411,-15.70409489,24.70290184
19.47241293,31.36631584,-13.93819237,22.10429764
19.48241293,32.73979568,-13.34955788,21.34337997
19.49241293,34.11806107,-13.33041477,21.81715775
19.50241293,35.3766861,-13.97647667,23.21935272
19.51241293,36.26203156,-14.67039585,25.23889542
19.52241293,37.09951782,-16.01516151,27.65564537
19.53241293,40.26761627,-20.26959991,30.32603645
19.54241293,41.8516655,-23.74876404,29.91925621
19.55241293,41.4640274,-28.34777069,28.25385094
19.56241293,38.45864105,-34.60739517,26.62673187
19.57241293,33.381073,-42.02514267,26.16252518
19.58241293,26.46102905,-49.53860855,27.55993271
19.59241293,12.1663065,-64.69474792,31.20180893
19.60241293,12.1663065,-64.69474792,31.20180893
19.61241293,12.1663065,-64.69474792,31.20180893
19.62241293,12.1663065,-64.69474792,31.20180893
19.63241293,2.11645174,-71.81099701,10.22632599
19.64241293,-4.018745422,-71.6578598,2.760719061
19.65241293,-4.018745422,-71.6578598,2.760719061
19.66241293,-4.018745422,-71.6578598,2.760719061
19.67241293,-4.018745422,-71.6578598,2.760719061
19.68241293,-14.60937881,-49.81138992,-5.221737385
19.69241293,-14.43709564,-52.50570679,-7.930412292
19.70241293,-18.17468452,-53.21398163,-8.045268059
19.71241293,-26.52084923,-48.55754852,-7.202994347
19.72241293,-26.52084923,-48.55754852,-7.202994347
19.73241293,-26.52084923,-48.55754852,-7.202994347
19.74241293,-37.73361588,-30.61137962,-4.843671322
19.75241293,-29.19602585,-33.25784302,-0.823729217
19.76241293,-20.90250206,-35.38266754,2.301297188
19.77241293,-12.98704529,-36.77529144,2.818146944
19.78241293,-6.904489517,-36.76572037,1.214955688
19.79241293,-0.774078131,-31.31965637,-1.4267205
19.80241293,-0.774078131,-31.31965637,-1.4267205
19.81241293,-0.774078131,-31.31965637,-1.4267205
19.82241293,-0.774078131,-31.31965637,-1.4267205
19.83241293,7.021738052,-19.94896317,0.812961519
19.84241293,7.710870743,-17.62313843,1.72223413
19.85241293,7.710870743,-17.62313843,1.72223413
19.86241293,7.710870743,-17.62313843,1.72223413
19.87241293,5.46161747,-6.262016773,9.905687332
19.88241293,5.944967747,-5.213960648,11.36530972
19.89241293,7.112665176,-5.151747227,11.60937691
19.90241293,7.112665176,-5.151747227,11.60937691
19.91241293,9.97926712,-5.749952793,10.36510944
19.92241293,12.27637672,-5.434100151,11.09252739
19.93241293,12.67358494,-4.673182487,12.86800194
19.94241293,11.97966671,-3.940979004,15.17946911
19.95241293,11.87438202,-3.572484255,17.22293854
19.96241293,12.13759327,-3.361915827,18.01257133
19.97241293,12.49651623,-3.792623997,17.76850319
19.98241293,13.10907841,-5.271388054,16.36152267
19.99241293,12.7692976,-5.381458282,16.61037636
20.00241293,12.7692976,-5.381458282,16.61037636
20.01241293,12.7692976,-5.381458282,16.61037636
20.02241293,12.61137199,-5.788238049,20.68296051
20.03241293,12.88415337,-5.458028316,20.88395691
20.04241293,13.01815128,-5.142175674,20.30010986
20.05241293,13.01815128,-5.142175674,20.30010986
20.06241293,13.01815128,-5.142175674,20.30010986
20.07241293,14.12842083,-4.902893543,17.79243088
20.08241293,14.12842083,-4.902893543,17.79243088
20.09241293,13.94656658,-6.108876228,18.7495594
20.10241293,13.63071442,-6.92243576,20.07518387
20.11241293,13.63071442,-6.92243576,20.07518387
20.12241293,15.7938261,-9.487542152,23.69791794
20.13241293,18.0335083,-10.36331463,23.06142616
20.14241293,20.4311161,-11.2438736,20.73081779
20.15241293,22.47937202,-11.64586735,18.24228096
20.16241293,24.06342125,-11.79900837,16.16052628
20.17241293,25.45604324,-12.40199947,14.86361599
20.18241293,25.52304268,-12.13400364,16.40937996
20.19241293,26.12603378,-12.18185997,18.41934967
20.20241293,27.37987328,-12.4498558,19.99382782
20.21241293,28.28436089,-12.3924284,20.78345871
20.21241293,28.28436089,-12.3924284,20.78345871
20.23241293,28.00679207,-11.40180016,19.03191376
20.24241293,28.00679207,-11.40180016,19.03191376
20.25241293,28.00679207,-11.40180016,19.03191376
20.26241293,28.00679207,-11.40180016,19.03191376
20.27241293,29.07877731,-12.30150127,22.43450737
20.28241293,30.60061264,-12.29671574,23.35813713
20.29241293,31.95016479,-11.95214939,22.89392853
20.30241293,31.95016479,-11.95214939,22.89392853
20.31241293,31.95016479,-11.95214939,22.89392853
20.32241293,33.1944313,-11.4640131,21.0083847
20.33241293,33.2949295,-12.2297163,23.20499611
20.34241293,34.32862854,-13.41655636,24.84168625
20.35241293,35.76910782,-15.498312,25.04268265
20.36241293,36.8315239,-17.57528305,24.67418861
20.37241293,37.86043549,-23.62912369,25.57867622
20.38241293,37.22394562,-28.10848808,27.97149849
20.39241293,36.01796341,-33.24827194,30.79502869
20.40241293,34.47219849,-38.88576126,32.35514832
20.41241293,32.16073227,-45.67658997,30.54138947
20.42241293,28.55714226,-54.83631516,25.56910515
20.43241293,15.46840191,-72.56234741,13.55234909
20.44241293,15.46840191,-72.56234741,13.55234909
20.45241293,15.46840191,-72.56234741,13.55234909
20.46241293,-4.22931385,-76.86463928,15.50010681
20.47241293,-7.014559746,-77.57770538,7.742575645
20.48241293,-12.69512081,-79.18567657,0.611964405
20.49241293,-26.00878525,-75.98408508,-5.968297958
20.50241293,-54.45944595,-50.36652374,3.602992773
20.51241293,-54.45944595,-50.36652374,3.602992773
20.52241293,-54.4020195,-41.80022049,-4.580460548
20.53241293,-51.09992218,-38.67040634,-8.949754715
20.54241293,-47.11826706,-36.67957687,-9.782457352
20.55241293,-47.11826706,-36.67957687,-9.782457352
20.56241293,-47.11826706,-36.67957687,-9.782457352
20.57241293,-47.11826706,-36.67957687,-9.782457352
20.58241293,-14.89651775,-37.9382019,6.426523209
20.59241293,-8.153543472,-36.27279663,1.640878081
20.60241293,-2.377269268,-33.29612732,-2.900699139
20.61241293,2.274377823,-29.41018295,-4.963312149
20.62241293,5.322834015,-25.49073982,-4.197608948
20.63241293,5.322834015,-25.49073982,-4.197608948
20.64241293,8.127222061,-16.80000687,2.105085611
20.65241293,8.644071579,-14.97667694,4.177269936
20.66241293,8.92642498,-13.12941742,5.799603939
20.67241293,8.59142971,-11.31087303,6.570092678
20.68241293,7.787441254,-9.722038269,6.598806858
20.69241293,7.787441254,-9.722038269,6.598806858
20.70241293,5.088337421,-6.87457943,5.297111034
20.71241293,4.600201607,-5.960521221,5.569892883
20.72241293,4.648057938,-5.247459888,6.445665836
20.73241293,5.270191669,-4.687539577,7.632505894
20.74241293,6.418746948,-4.17069006,8.781061172
20.75241293,6.418746948,-4.17069006,8.781061172
20.76241293,6.418746948,-4.17069006,8.781061172
20.77241293,6.418746948,-4.17069006,8.781061172
20.78241293,6.418746948,-4.17069006,8.781061172
20.79241293,10.85025406,-3.907479286,19.89332962
20.80241293,11.22832012,-4.606183529,20.10389709
20.81241293,11.86959648,-5.391029358,20.13739777
20.82241293,13.08036518,-7.166503906,22.9657135
20.83241293,13.98963737,-7.511070251,26.47837639
20.84241293,15.08076477,-7.477570534,29.21098137
20.85241293,16.32981873,-7.137789726,30.06761169
20.86241293,17.65544128,-6.582654953,28.66541672
20.87241293,18.51685715,-5.922235966,25.39682198
20.88241293,19.66062737,-4.486542225,20.38625145
20.89241293,19.66062737,-4.486542225,20.38625145
20.90241293,20.13440704,-5.257031441,21.09452629
20.91241293,20.13440704,-5.257031441,21.09452629
20.92241293,20.13440704,-5.257031441,21.09452629
20.93241293,20.13440704,-5.257031441,21.09452629
20.94241293,24.68076897,-9.281759262,25.86581421
20.95241293,24.68076897,-9.281759262,25.86581421
20.96241293,24.68076897,-9.281759262,25.86581421
20.97241293,31.64388275,-13.17248821,22.34358025
20.98241293,32.60579681,-13.54576874,20.46282196
20.99241293,33.24228668,-13.73240948,18.64427567
21.00241293,33.59642792,-13.93340588,17.27558136
21.01241293,33.59642792,-13.93340588,17.27558136
21.01241293,31.95495033,-13.42612743,16.73001862
21.03241293,28.4614296,-13.26341629,18.17528343
21.04241293,26.7433815,-13.26341629,18.81655884
21.05241293,24.91526604,-13.29212952,18.8117733
21.06241293,22.63251305,-13.08634663,18.37627983
21.07241293,20.98146629,-12.4929266,19.20898247
21.08241293,20.98146629,-12.4929266,19.20898247
21.09241293,22.35494614,-11.75593758,22.4632206
21.10241293,23.69492531,-11.51186943,22.04686928
21.11241293,25.08754921,-11.28215885,20.57767677
21.12241293,25.43211555,-10.98544884,18.36192322
21.13241293,25.43211555,-10.98544884,18.36192322
21.14241293,25.43211555,-10.98544884,18.36192322
21.15241293,24.50848579,-16.3645134,15.78246021
21.16241293,24.50848579,-16.3645134,15.78246021
21.17241293,21.65624046,-20.99223328,21.11366844
21.18241293,20.53639984,-23.99761772,23.87977219
21.19241293,19.23949051,-26.87379074,25.47339249
21.20241293,18.02393723,-29.54418182,25.74617386
21.21241293,18.02393723,-29.54418182,25.74617386
21.22241293,13.72164154,-40.23052597,19.85025787
21.23241293,12.6687994,-43.11627197,18.84048653
21.24241293,12.00838089,-46.23651123,18.16571045
21.25241293,11.81695461,-49.14618301,17.3808651
21.26241293,11.68774223,-52.29992294,14.81575966
21.27241293,7.519444942,-59.13382721,4.014558315
21.28241293,0.13519448,-57.99962616,0.01375873
21.29241293,-6.540780544,-55.45366287,-0.244666114
21.30241293,-11.54656601,-51.38108063,-0.646660328
21.31241293,-16.22214127,-47.09792709,-2.240280151
21.32241293,-20.62014961,-41.91986084,-5.24566555
21.33241293,-20.62014961,-41.91986084,-5.24566555
21.34241293,-20.62014961,-41.91986084,-5.24566555
21.35241293,-20.62014961,-41.91986084,-5.24566555
21.36241293,-20.62014961,-41.91986084,-5.24566555
21.37241293,-28.74138832,-22.79642105,-19.73659897
21.38241293,-25.89871597,-23.0787735,-18.62632942
21.39241293,-22.51526451,-23.52862549,-15.77408504
21.40241293,-15.56650734,-25.14138794,-8.385048866
21.41241293,-12.77169132,-26.2660141,-4.800600529
21.42241293,-10.35494041,-27.02693176,-1.421934843
21.43241293,-7.713263988,-27.82134819,1.444666624
21.44241293,-4.827519894,-28.57269478,2.358724833
21.45241293,-2.047059774,-28.39562607,0.82731843
21.46241293,2.824727058,-25.70609283,-1.886142492
21.47241293,5.365904808,-24.24168587,-0.713659346
21.48241293,7.830512047,-22.82513428,1.688734531
21.49241293,9.74477005,-20.85823441,4.478765965
21.50241293,10.56790161,-18.19263077,6.469594002
21.51241293,10.52004433,-15.01974773,8.134998322
21.52241293,9.897911072,-12.37328625,10.20239735
21.53241293,9.897911072,-12.37328625,10.20239735
21.54241293,9.897911072,-12.37328625,10.20239735
21.55241293,7.907082558,-8.841479301,14.48076439
21.56241293,8.222934723,-8.994620323,14.9401865
21.57241293,8.041080475,-8.669196129,15.44746494
21.58241293,8.041080475,-8.669196129,15.44746494
21.59241293,8.041080475,-8.669196129,15.44746494
21.60241293,13.11865044,-6.965506554,19.96990013
21.61241293,13.11865044,-6.965506554,19.96990013
21.62241293,15.96610928,-6.87457943,18.77827454
21.63241293,16.86581039,-6.92243576,17.35215187
21.64241293,16.7030983,-7.056434155,15.94038582
21.65241293,16.14317703,-7.008577347,15.78246021
21.66241293,16.14317703,-7.008577347,15.78246021
21.67241293,16.14317703,-7.008577347,15.78246021
21.68241293,16.14317703,-7.008577347,15.78246021
21.69241293,15.80818272,-9.004191399,27.61257553
21.70241293,17.71765518,-9.755537987,26.6554451
21.71241293,19.3639164,-9.985248566,23.91805649
21.72241293,20.98146629,-9.233902931,18.84527206
21.73241293,21.50310135,-9.616754532,18.18964005
21.74241293,22.22094727,-10.84187984,18.72563171
21.75241293,23.4173584,-11.94257736,20.32403755
21.76241293,25.09712029,-12.90927792,21.35295105
21.77241293,26.71466827,-14.10090351,21.12323952
21.78241293,27.38465881,-14.78525066,20.69731712
21.79241293,29.76312447,-15.56531143,21.08495522
21.80241293,32.21815872,-15.67059517,20.74995995
21.81241293,33.80699539,-16.15873146,17.84028816
21.82241293,33.11307526,-16.22094536,14.64826202
21.83241293,31.79702377,-15.72323799,13.01157093
21.84241293,30.8973217,-14.72782326,13.16949749
21.85241293,30.8973217,-14.72782326,13.16949749
21.86241293,30.8973217,-14.72782326,13.16949749
21.87241293,29.16013336,-14.3066864,19.06062698
21.88241293,28.38007355,-14.11526108,18.26621056
21.89241293,27.37508774,-13.84247875,17.87857246
21.90241293,27.37508774,-13.84247875,17.87857246
21.91241293,27.37508774,-13.84247875,17.87857246
21.92241293,26.4418869,-12.75613785,22.82214355
21.93241293,27.78186798,-12.28235817,23.27199554
21.94241293,28.85863686,-11.44008541,22.32443619
21.95241293,30.6341114,-10.99501991,20.7068882
21.96241293,32.45744324,-11.20558834,18.37627983
21.97241293,34.6109848,-12.20578861,16.11266899
21.98241293,37.77429581,-17.37428474,13.29392433
21.99241293,37.38187027,-21.69093704,14.6769762
22.00241293,35.0751915,-26.6680088,17.7828598
22.01241293,31.69652557,-32.65006638,22.61636162
22.02241293,27.93022156,-39.76631927,27.2823658
22.03241293,23.57049942,-47.11228561,29.82354355
22.04241293,13.69292736,-62.26842499,24.67897415
22.05241293,7.17009306,-68.44190979,18.08914185
22.06241293,0.087338023,-69.64788818,12.56650639
22.07241293,0.087338023,-69.64788818,12.56650639
22.08241293,0.087338023,-69.64788818,12.56650639
22.09241293,-12.42712402,-55.98487091,8.733204842
22.10241293,-12.7381916,-53.47240829,4.277768612
22.11241293,-12.7381916,-53.47240829,4.277768612
22.12241293,-12.7381916,-53.47240829,4.277768612
22.13241293,-23.56332016,-44.71946335,-3.900899172
22.14241293,-25.90828705,-41.41736603,-4.116253376
22.15241293,-25.90828705,-41.41736603,-4.116253376
22.16241293,-29.49752045,-35.36831284,-7.040282249
22.17241293,-29.86601639,-29.19961548,-8.873184204
22.18241293,-28.62653351,-28.9890461,-9.093324661
22.19241293,-28.24368286,-26.88336182,-7.710272789
22.20241293,-26.40120888,-25.6008091,-3.661616802
22.21241293,-22.52483559,-25.65345192,1.06660068
22.22241293,-18.16511345,-25.40459824,4.689334393
22.23241293,-14.18345642,-24.66282272,6.957729816
22.24241293,-14.18345642,-24.66282272,6.957729816
22.25241293,-14.18345642,-24.66282272,6.957729816
22.26241293,-14.18345642,-24.66282272,6.957729816
22.27241293,-2.583052158,-17.88634872,0.305683106
22.28241293,-0.994217813,-16.80957985,-1.823929071
22.29241293,0.561116934,-16.17787361,-3.417548895
22.30241293,0.561116934,-16.17787361,-3.417548895
22.31241293,0.561116934,-16.17787361,-3.417548895
22.32241293,5.466403484,-15.1346035,3.516851187
22.33241293,5.523830891,-13.73719501,5.842674732
22.34241293,5.289334297,-11.88993549,8.302495956
22.35241293,5.174479008,-10.32024384,10.53739262
22.36241293,5.227120876,-9.243474007,12.73400402
22.37241293,7.500302792,-9.712467194,15.27039623
22.38241293,9.510273933,-10.33938694,15.58146286
22.39241293,9.510273933,-10.33938694,15.58146286
22.40241293,12.60658646,-10.0331049,13.19342613
22.41241293,13.97049522,-10.00917721,12.2602253
22.42241293,14.9084816,-9.927821159,12.23151112
22.43241293,14.9084816,-9.927821159,12.23151112
22.44241293,14.9084816,-9.927821159,12.23151112
22.45241293,18.41635895,-12.45942783,25.11446762
22.46241293,19.57927132,-12.26321602,28.42613411
22.47241293,20.66082764,-12.22014523,29.34019279
22.48241293,21.68017006,-12.75135231,28.35913658
22.49241293,21.68017006,-12.75135231,28.35913658
22.50241293,22.71386909,-12.25843048,22.73121643
22.51241293,22.71386909,-12.25843048,22.73121643
22.52241293,24.35534477,-11.48794174,25.39682198
22.53241293,26.87259483,-12.38764286,28.11985397
22.54241293,29.90190887,-13.93340588,29.69433022
22.55241293,32.29473114,-15.11067486,29.66083145
22.56241293,32.29473114,-15.11067486,29.66083145
22.57241293,36.83630753,-17.17807388,23.86063004
22.58241293,38.45864105,-17.7954216,21.16631126
22.59241293,40.06183243,-18.81476402,18.52942085
22.60241293,41.64109421,-19.27897263,16.36152267
22.61241293,42.61258316,-19.00618935,14.54297829
22.62241293,40.02354813,-17.47956848,12.55693531
22.63241293,36.71187973,-15.8811636,13.22213936
22.64241293,33.16571808,-15.45045567,14.27976704
22.65241293,29.88755035,-15.32124329,16.26102448
22.66241293,27.79143906,-15.46959877,18.90748596
22.67241293,26.63331223,-16.65643883,19.95554352
22.68241293,26.08296394,-18.27877235,19.42912102
22.69241293,26.08296394,-18.27877235,19.42912102
22.70241293,26.08296394,-18.27877235,19.42912102
22.71241293,28.96870804,-18.76212311,21.76451683
22.72241293,31.03132057,-17.91506386,20.69731712
22.73241293,32.99343491,-17.3312149,18.19442558
22.74241293,33.95534897,-17.17807388,15.21775341
22.75241293,33.95534897,-17.17807388,15.21775341
22.76241293,32.36651611,-24.17947197,11.59023476
22.77241293,30.71068192,-31.43929672,11.54716396
22.78241293,27.269804,-38.65605164,13.26521015
22.79241293,22.07259178,-45.36074066,16.6151619
22.80241293,16.16710663,-51.48636627,21.19981003
22.81241293,10.09412193,-54.7023201,25.7892437
22.82241293,5.499902725,-54.46782303,24.8225441
22.83241293,7.591229916,-57.37749481,20.61596107
22.84241293,7.591229916,-57.37749481,20.61596107
22.85241293,6.7202425,-74.54360199,8.020143509
22.86241293,0.178265288,-78.05148315,3.023929596
22.87241293,-12.86261845,-72.6628418,1.272383451
22.88241293,-12.86261845,-72.6628418,1.272383451
22.89241293,-12.86261845,-72.6628418,1.272383451
22.90241293,-12.86261845,-72.6628418,1.272383451
22.91241293,-31.03849983,-40.70909119,0.425324231
22.92241293,-33.11546707,-37.17728424,-0.378664196
22.93241293,-37.73840332,-31.23830032,-2.034497499
22.94241293,-41.29413605,-25.10310173,-2.83370018
22.95241293,-41.29413605,-25.10310173,-2.83370018
22.96241293,-41.29413605,-25.10310173,-2.83370018
22.97241293,-15.10708618,-25.29452896,-0.91465646
22.98241293,-7.765905857,-25.32802773,1.085743308
22.99241293,-2.37248373,-24.45704079,2.219941139
23.00241293,0.977468073,-22.90649033,2.330011129
23.01241293,3.662214994,-18.661623,1.133599758
23.02241293,3.662214994,-18.661623,1.133599758
23.03241293,3.839283943,-14.48854065,0.846460998
23.04241293,3.901497364,-13.00499153,1.353739381
23.05241293,4.073780537,-12.09093285,1.779661894
23.06241293,4.470989227,-11.63629627,2.277369022
23.07241293,4.667200565,-10.66002464,3.153141975
23.08241293,4.317848682,-9.43489933,3.942773581
23.09241293,3.98763895,-8.248059273,5.273182869
23.10241293,4.030709743,-7.300501823,6.876374245
23.11241293,4.537988186,-6.520441532,8.369495392
23.12241293,5.198407173,-5.831308842,9.082556725
23.13241293,5.959324837,-5.458028316,8.795417786
23.14241293,5.959324837,-5.458028316,8.795417786
23.15241293,5.959324837,-5.458028316,8.795417786
23.16241293,5.959324837,-5.458028316,8.795417786
23.17241293,6.102894306,-4.137190342,4.555335999
23.18241293,6.184250355,-4.338187218,7.498507977
23.19241293,7.634300709,-5.213960648,10.8867445
23.20241293,7.634300709,-5.213960648,10.8867445
23.21241293,12.35294724,-6.711867332,16.050457
23.22241293,12.86501122,-6.022734642,16.6534481
23.23241293,12.33380413,-5.534598827,17.09851265
23.24241293,11.21396351,-5.38624382,18.42892265
23.25241293,10.36211872,-5.582455158,20.69253159
23.26241293,10.43868923,-6.24766016,23.97069931
23.27241293,12.35294724,-7.994420528,27.77050209
23.28241293,13.95613766,-8.678768158,27.76093102
23.29241293,15.20519161,-8.798408508,27.11486816
23.30241293,16.21974754,-8.573483467,25.92802811
23.31241293,16.86581039,-8.583054543,24.36790848
23.31241293,16.86581039,-8.583054543,24.36790848
23.33241293,19.71805573,-9.64068222,24.16691017
23.34241293,20.95275116,-10.16231823,23.994627
23.35241293,21.96252251,-10.80359459,23.46820641
23.36241293,22.8526535,-11.09073257,23.05664063
23.37241293,23.84806633,-11.47837067,22.17129707
23.38241293,24.62812614,-12.1292181,20.82174492
23.39241293,24.79562378,-12.50728416,19.54397774
23.40241293,24.14956284,-11.64586735,19.04627037
23.41241293,23.84806633,-10.86580753,19.34297943
23.42241293,23.41257286,-10.11924744,19.33819389
23.43241293,23.22114754,-9.525827408,18.2470665
23.44241293,23.32643127,-9.343972206,16.43809319
23.45241293,23.2785759,-9.396614075,14.36112309
23.46241293,23.2785759,-9.396614075,14.36112309
23.47241293,23.2785759,-9.396614075,14.36112309
23.48241293,21.77588272,-9.190832138,15.4235363
23.49241293,21.77588272,-9.190832138,15.4235363
23.50241293,22.55594254,-8.659625053,18.37149429
23.51241293,23.21157646,-8.214560509,19.11326981
23.52241293,24.07777786,-8.41077137,19.31905174
23.53241293,25.7766819,-9.635896683,19.89811516
23.54241293,25.7766819,-9.635896683,19.89811516
23.55241293,30.658041,-12.11486149,21.3338089
23.56241293,34.59183884,-13.37348557,20.01296997
23.57241293,38.99942017,-14.19661713,18.75913048
23.58241293,43.04328918,-15.61316776,16.52423477
23.59241293,44.97190475,-19.25025749,12.77228928
23.60241293,42.95236206,-21.22673035,15.45703602
23.61241293,42.95236206,-21.22673035,15.45703602
23.62241293,42.95236206,-21.22673035,15.45703602
23.63241293,32.58187103,-41.87678909,26.88994217
23.64241293,26.70031166,-53.49155045,28.79941559
23.65241293,26.70031166,-53.49155045,28.79941559
23.66241293,26.70031166,-53.49155045,28.79941559
23.67241293,26.70031166,-53.49155045,28.79941559
23.68241293,-4.18145752,-64.23053741,24.84647179
23.69241293,-6.000002861,-64.8431015,18.59642029
23.70241293,-11.13021469,-65.24031067,12.2171545
23.71241293,-11.13021469,-65.24031067,12.2171545
23.72241293,-11.13021469,-65.24031067,12.2171545
23.73241293,-33.53660583,-46.1695137,2.631506681
23.74241293,-33.53660583,-46.1695137,2.631506681
23.75241293,-33.54139328,-39.46482468,-5.298307419
23.76241293,-36.44627762,-31.56851006,-8.471190453
23.77241293,-37.77668762,-24.5336113,-10.07916737
23.78241293,-32.32583618,-18.99183273,-9.868598938
23.79241293,-32.32583618,-18.99183273,-9.868598938
23.80241293,-23.50589371,-17.91027832,-2.21156621
23.81241293,-19.79223251,-17.94377708,1.884945989
23.82241293,-16.80120468,-18.57069588,4.82333231
23.83241293,-14.5758791,-18.79083633,7.407580853
23.84241293,-12.3361969,-19.09711838,8.58006382
23.85241293,-12.3361969,-19.09711838,8.58006382
23.86241293,-12.3361969,-19.09711838,8.58006382
23.87241293,-1.353141189,-15.94337749,-2.450848579
23.88241293,1.317248821,-14.41197109,-2.967698336
23.89241293,3.293720484,-12.92363548,-2.307279348
23.90241293,4.604987144,-11.53101254,-0.933799028
23.91241293,4.604987144,-11.53101254,-0.933799028
23.92241293,4.681557655,-8.688339233,3.062214851
23.93241293,3.757927895,-7.908278942,3.775275946
23.94241293,2.681157827,-7.166503906,4.507479668
23.95241293,1.475175142,-6.515655994,4.880760193
23.96241293,0.451047063,-6.151947021,5.239683151
23.97241293,-0.017946171,-6.075376511,5.507679462
23.98241293,-0.415154725,-6.175875187,5.952744484
23.99241293,-0.367298275,-6.214160442,6.445665836
24.00241293,-0.24765715,-6.20458889,7.158727169
24.01241293,-0.089730851,-6.214160442,8.565707207
24.02241293,-0.142372951,-6.314659119,10.32203865
24.03241293,0.245264322,-6.92243576,13.12164116
24.04241293,2.867797852,-9.147761345,18.89791489
24.05241293,4.480560303,-10.55474091,20.62553215
24.06241293,6.648457527,-11.76072311,21.8363018
24.07241293,8.687142372,-12.80399418,22.07558441
24.08241293,10.36211872,-13.57448292,22.33400917
24.09241293,12.3481617,-13.96212006,23.32463646
24.10241293,14.7457695,-13.96212006,24.90390015
24.11241293,14.7457695,-13.96212006,24.90390015
24.12241293,14.7457695,-13.96212006,24.90390015
24.13241293,24.63769913,-13.7611227,24.36790848
24.14241293,26.19781876,-13.60798264,23.46820641
24.15241293,27.13101959,-13.89033508,23.65006065
24.16241293,27.79143906,-14.57468319,25.33460808
24.17241293,28.66242599,-15.59402561,29.04348373
24.18241293,29.19363213,-16.14437485,28.34477806
24.19241293,29.19363213,-16.14437485,28.34477806
24.20241293,29.02613449,-15.06760406,24.60718918
24.21241293,28.87299538,-14.35932827,22.77907372
24.22241293,28.4614296,-13.75633717,21.21895218
24.23241293,28.4614296,-13.75633717,21.21895218
24.24241293,28.4614296,-13.75633717,21.21895218
24.25241293,27.54737091,-13.97647667,15.77288914
24.26241293,26.11646271,-13.83290768,14.33240986
24.27241293,24.41277313,-13.70848083,14.05962753
24.28241293,22.90050888,-13.21555901,15.04547024
24.29241293,21.79023933,-12.61735344,16.22752571
24.30241293,20.24447632,-10.21974564,17.79243088
24.31241293,19.87119484,-8.855836868,17.32822418
24.32241293,19.72284126,-8.20498848,16.3136673
24.33241293,19.40698814,-8.051848412,14.94497204
24.34241293,19.7276268,-8.429914474,14.34676647
24.35241293,21.19203377,-9.181260109,14.72961807
24.36241293,27.91586494,-9.82732296,17.27079582
24.37241293,31.23710251,-9.923035622,18.55813408
24.38241293,34.20420456,-10.54516983,19.10848427
24.39241293,36.49652863,-11.87557888,18.54377747
24.40241293,38.2002182,-14.60818195,17.85464478
24.41241293,39.02334976,-19.17847443,17.30908012
24.42241293,38.57349777,-25.66780853,17.40479279
24.43241293,31.00260735,-39.34039688,22.78385925
24.44241293,26.25046158,-46.5332222,27.63650322
24.45241293,22.64686966,-53.82175827,30.26860809
24.46241293,22.64686966,-53.82175827,30.26860809
24.47241293,16.62652779,-66.99185181,21.08495522
24.48241293,12.86979675,-73.75397491,10.08275604
24.49241293,12.86979675,-73.75397491,10.08275604
