Time (s),Acceleration x (m/s^2),Acceleration y (m/s^2),Acceleration z (m/s^2)
0.056025855,4.638486862,3.333201885,6.55095005
0.064682001,4.408775806,3.136990547,7.287939548
0.074682001,0,0,0
0.084682001,3.915854216,3.141776085,7.819146156
0.094682001,3.566502094,3.251846075,7.804789066
0.104682001,3.786641836,3.108276606,8.379066467
0.114682001,3.748356581,3.247060299,8.489136696
0.124682001,3.676572084,3.495913982,8.364709854
0.134682001,3.676572084,3.495913982,8.364709854
0.144682001,3.676572084,3.495913982,8.364709854
0.154682001,3.676572084,3.495913982,8.364709854
0.164682001,4.260420799,3.333201885,8.972486496
0.174682001,4.126422882,3.16570425,9.379266739
0.184682001,3.877569199,3.285345554,9.407979965
0.194682001,3.877569199,3.285345554,9.407979965
0.204682001,3.877569199,3.285345554,9.407979965
0.214682001,3.877569199,3.285345554,9.407979965
0.224682001,4.356133461,4.14197588,8.106285095
0.234682001,4.480560303,4.098905087,8.225926399
0.244682001,4.332205296,4.113262177,8.623134613
0.254682001,3.839283943,4.146761417,9.431908607
0.264682001,2.863012314,3.940979004,10.46082211
0.274682001,2.51844573,4.060619831,10.73360443
0.284682001,2.475374937,4.223331928,10.96331501
0.294682001,2.685943365,4.314259052,11.00160027
0.304682001,3.111865759,4.285545349,10.72403336
0.314682001,3.399004459,4.33340168,10.18804073
0.324682001,3.399004459,4.33340168,10.18804073
0.334682001,3.399004459,4.33340168,10.18804073
0.344682001,3.399004459,4.33340168,10.18804073
0.354682001,2.834298372,4.55354166,7.986643791
0.364682001,2.824727058,4.510470867,7.613363266
0.374682001,2.867797852,4.448257446,7.364510059
0.384682001,2.973082066,4.352544308,7.187440872
0.394682001,3.480360508,3.993621111,6.881159782
0.404682001,3.671786308,3.696911097,6.68016243
0.414682001,3.724428415,3.371487141,6.369095802
0.424682001,3.595216036,3.079562664,6.077171326
0.434682001,3.595216036,3.079562664,6.077171326
0.444682001,3.17407918,2.629712105,5.957530022
0.454682001,3.0448668,2.371287346,5.512465
0.464682001,3.212364435,2.146361828,5.096114159
0.474682001,3.355933666,1.763510346,4.813760757
0.484682001,3.47557497,1.385444283,4.507479668
0.494682001,3.609572887,1.045663476,4.335196495
0.504682001,3.719642878,0.643669307,4.31126833
0.514682001,3.767499208,0.265603304,4.316053867
0.524682001,3.767499208,0.265603304,4.316053867
0.534682001,3.767499208,0.265603304,4.316053867
0.544682001,3.346362352,-1.323230863,3.191427231
0.554682001,2.992224693,-1.524227977,2.511865616
0.564682001,2.633301258,-1.801795483,1.794018745
0.574682001,2.360519648,-2.184647083,1.162313581
0.584682001,2.360519648,-2.184647083,1.162313581
0.584682001,2.030309916,-3.352344513,0.324825674
0.604682001,2.13559413,-4.701896667,0.119042926
0.614682001,2.9491539,-5.481956482,0.698105991
0.624682001,4.188635826,-5.974878311,1.870589137
0.634682001,4.188635826,-5.974878311,1.870589137
0.644682001,4.188635826,-5.974878311,1.870589137
0.654682001,4.188635826,-5.974878311,1.870589137
0.664682001,4.188635826,-5.974878311,1.870589137
0.664682001,7.318448067,-8.865407944,0.894317448
0.684682001,5.911468506,-9.812965393,2.751147747
0.694682001,5.408975601,-10.13838959,4.890331268
0.704682001,6.083751678,-10.47817039,7.402794838
0.714682001,8.74935627,-11.33480072,10.23111153
0.724682001,8.74935627,-11.33480072,10.23111153
0.734682001,11.42931747,-12.21057415,9.264410973
0.744682001,12.59222889,-12.53599739,8.082356453
0.754682001,13.68814182,-12.66999626,6.69451952
0.764682001,14.93240929,-12.67956734,5.445466042
0.774682001,14.93240929,-12.67956734,5.445466042
0.784682001,14.93240929,-12.67956734,5.445466042
0.794682001,14.93240929,-12.67956734,5.445466042
0.804682001,13.39143181,-11.17208862,2.200798512
0.814682001,12.72622681,-10.99501991,2.42572403
0.824682001,12.19502068,-11.11944675,2.569293261
0.834682001,11.82174015,-11.03809071,2.669791937
0.844682001,11.82174015,-11.03809071,2.669791937
0.854682001,12.52523041,-9.927821159,2.684148788
0.864682001,12.86979675,-9.535398483,2.009372711
0.874682001,13.08036518,-9.095118523,1.19581306
0.884682001,12.58744335,-9.066405296,0.688534737
0.894682001,13.40100288,-9.56411171,1.559522152
0.904682001,16.39681625,-10.28195858,3.650849104
0.914682001,18.80878258,-10.00917721,4.761118889
0.924682001,21.61317062,-9.64068222,6.014957905
0.934682001,24.35534477,-9.233902931,6.852446079
0.944682001,26.64766884,-8.769695282,7.383652687
0.954682001,28.49492836,-8.257631302,7.742575645
0.954682001,28.49492836,-8.257631302,7.742575645
0.974682001,28.49492836,-8.257631302,7.742575645
0.984682001,28.49492836,-8.257631302,7.742575645
0.994682001,28.49492836,-8.257631302,7.742575645
1.004682001,36.04188919,-9.09990406,4.354339123
1.014682001,35.98925018,-9.43489933,3.349353552
1.024682001,35.40539932,-10.44467068,2.966501951
1.034682001,33.4576416,-12.73699474,3.602992773
1.044682001,32.72065353,-13.84726429,3.981058598
1.054682001,32.39522934,-14.5268259,4.158127785
1.064682001,32.15594864,-14.81875038,4.258625984
1.074682001,32.17030334,-15.68973827,3.966701746
1.084682001,32.32823181,-16.86222076,3.598206997
1.094682001,32.48615646,-18.35534286,3.689134359
1.104682001,32.75415421,-23.06920242,5.134399414
1.114682001,32.72543716,-25.92144775,7.082156658
1.124682001,33.0556488,-28.53441048,9.628120422
1.134682001,34.21855927,-31.27179909,12.32243824
1.144682001,34.21855927,-31.27179909,12.32243824
1.154682001,40.83710861,-37.12942886,14.46162224
1.164682001,47.45565414,-45.57609177,11.93001556
1.174682001,49.30291367,-52.64927673,11.57587814
1.184682001,48.44628525,-58.56433487,13.26042461
1.194682001,48.44628525,-58.56433487,13.26042461
1.204682001,40.13840485,-65.05845642,21.01317024
1.214682001,35.43889999,-67.74320221,25.4638195
1.224682001,28.69592476,-71.75357056,29.77090073
1.234682001,27.06402016,-73.62476349,28.12463951
1.244682001,26.9683075,-76.14679718,24.91825676
1.254682001,27.52344322,-79.89395905,20.85524368
1.264682001,28.02593613,-84.90452576,16.78265953
1.274682001,25.14497757,-87.75676727,13.10249901
1.284682001,25.14497757,-87.75676727,13.10249901
1.284682001,18.63171387,-85.13902283,11.23131084
1.304682001,18.63171387,-85.13902283,11.23131084
1.314682001,-5.444868088,-67.66184235,25.13839722
1.324682001,-10.75693417,-63.40740585,19.25683784
1.334682001,-14.76730537,-59.69374466,9.905687332
1.344682001,-17.37069511,-56.4969368,-1.656431437
1.354682001,-17.37069511,-56.4969368,-1.656431437
1.354682001,-22.21855545,-45.64309311,-20.76551247
1.374682001,-25.5637207,-33.51626587,-18.75554276
1.384682001,-24.7358036,-28.67797852,-12.0412817
1.394682001,-21.73041916,-25.06960297,-5.121238708
1.404682001,-16.89691734,-23.10748863,-0.402592421
1.414682001,-11.7906332,-22.49014091,0.836889744
1.424682001,-8.627322197,-19.75753593,-6.997211456
1.434682001,-9.316454887,-17.49871254,-13.13719463
1.444682001,-9.316454887,-17.49871254,-13.13719463
1.454682001,-9.249456406,-15.34517193,-21.07658005
1.464682001,-9.570094109,-15.17767429,-21.66521454
1.474682001,-9.421739578,-15.07717514,-20.50708771
1.484682001,-9.421739578,-15.07717514,-20.50708771
1.494682001,-14.93001652,-11.16251755,-10.96929741
1.504682001,-14.11645699,-10.92802143,-9.131608963
1.514682001,-12.94876003,-10.48774147,-8.150551796
1.524682001,-11.13978577,-10.05703354,-7.916055679
1.534682001,-9.345169067,-9.678967476,-8.351549149
1.544682001,-7.93818903,-9.410971642,-9.581459999
1.554682001,-7.93818903,-9.410971642,-9.581459999
1.564682001,-3.908675671,-9.377471924,-12.31884956
1.574682001,-2.784049034,-9.645467758,-12.51027489
1.584682001,-2.784049034,-9.645467758,-12.51027489
1.594682001,-1.176072359,-9.650253296,-10.88794136
1.594682001,-2.784049034,-9.645467758,-12.51027489
1.614682001,-0.17587246,-8.583054543,-7.657630444
1.624682001,-0.262014091,-8.20498848,-7.126423836
1.634682001,-0.281156659,-8.032705307,-6.671787739
1.644682001,-0.285942316,-8.061419487,-6.245865345
1.654682001,-0.285942316,-8.109275818,-6.030511379
1.664682001,-0.285942316,-7.831708431,-5.604588985
1.674682001,-0.084945202,-7.247859955,-4.52781868
1.684682001,1.192822099,-6.21894598,-1.828714728
1.694682001,2.14995122,-6.147161484,-0.416949332
1.704682001,3.255435228,-6.39601469,1.205384374
1.714682001,4.298706055,-6.802794933,2.674577475
1.724682001,5.255835056,-7.329215527,4.028914928
1.734682001,6.102894306,-7.932207108,5.569892883
1.744682001,6.102894306,-7.932207108,5.569892883
1.754682001,6.102894306,-7.932207108,5.569892883
1.764682001,9.069993973,-8.831908226,10.44646549
1.774682001,9.069993973,-8.831908226,10.44646549
1.784682001,10.44826031,-9.095118523,9.403194427
1.794682001,10.40518951,-8.961120605,7.905287743
1.804682001,10.15633583,-8.874979019,5.522036552
1.814682001,10.26640511,-8.98026371,4.718048096
1.824682001,10.78804111,-9.052047729,4.34476757
1.834682001,10.78804111,-9.052047729,4.34476757
1.844682001,10.78804111,-9.052047729,4.34476757
1.854682001,13.35793209,-9.363115311,7.211369038
1.864682001,13.58764362,-9.521040916,8.206783295
1.874682001,13.58764362,-9.521040916,8.206783295
1.884682001,12.30987644,-9.856036186,7.493722439
1.894682001,11.86959648,-10.44467068,6.393023968
1.904682001,11.45803165,-11.6267252,5.234897614
1.914682001,11.14217854,-12.80877972,4.263411522
1.924682001,10.67318535,-13.69890976,3.392424345
1.934682001,9.553344727,-14.88574982,3.421138287
1.944682001,9.553344727,-14.88574982,3.421138287
1.954682001,8.873783112,-15.93859196,6.483951092
1.964682001,9.59641552,-17.08714676,7.134799004
1.974682001,9.59641552,-17.08714676,7.134799004
1.984682001,11.08953667,-19.39861298,6.268597126
1.994682001,11.84566879,-20.53759766,6.589235306
2.004682001,14.00399494,-22.0737896,9.034700394
2.014682001,15.51625824,-22.22214317,10.97767162
2.024682001,17.88515282,-22.43749809,11.26481056
2.034682001,20.34497452,-22.07857513,9.786046028
2.044682001,22.17787743,-20.94916153,6.976872444
2.054682001,23.02493668,-19.45604134,3.650849104
2.064682001,23.02493668,-19.45604134,3.650849104
2.074682001,23.02493668,-19.45604134,3.650849104
2.084682001,23.02493668,-19.45604134,3.650849104
2.094682001,24.13042068,-18.50848389,-0.632303357
2.104682001,26.12124825,-17.6327095,2.306082726
2.114682001,29.327631,-16.73779488,5.268397331
2.124682001,34.05106354,-15.80937958,7.316653252
2.134682001,40.02354813,-13.67976665,7.331010342
2.144682001,41.95694733,-12.96191978,5.478965759
2.154682001,42.54558182,-12.72742367,2.69850564
2.164682001,42.17230225,-12.57428265,0.324825674
2.174682001,40.91367722,-13.00020504,-1.718644857
2.184682001,39.40141296,-13.73240948,-2.632703066
2.194682001,39.40141296,-13.73240948,-2.632703066
2.204682001,39.40141296,-13.73240948,-2.632703066
2.214682001,35.63032532,-16.58943939,5.938387394
2.224682001,35.4149704,-17.39821434,8.001000404
2.234682001,35.91267776,-19.04926109,9.049057007
2.244682001,37.15216064,-21.88236237,9.508479118
2.254682001,38.62614059,-24.95953369,9.953543663
2.264682001,43.22514343,-32.11885834,12.7435751
2.274682001,46.95316315,-35.98087311,15.41396523
2.284682001,51.5282402,-40.16352844,19.00319862
2.294682001,51.5282402,-40.16352844,19.00319862
2.294682001,57.1753006,-45.57130814,22.8030014
2.314682001,66.50252533,-58.30112457,23.769701
2.324682001,66.50252533,-58.30112457,23.769701
2.334682001,57.71607971,-92.0255661,21.35773659
2.344682001,46.46502686,-97.84012604,26.59801865
2.354682001,36.96073532,-102.5922699,33.06342697
2.364682001,28.7007103,-103.3771133,36.68615723
2.374682001,24.42712975,-104.8080215,36.33201981
2.384682001,17.08116531,-106.0762177,34.66661453
2.394682001,17.08116531,-106.0762177,34.66661453
2.404682001,17.08116531,-106.0762177,34.66661453
2.414682001,17.08116531,-106.0762177,34.66661453
2.424682001,4.853840828,-79.16175079,22.69293213
2.434682001,-0.132801652,-74.08418274,16.85923004
2.444682001,-6.909275532,-70.55237579,11.02074242
2.454682001,-6.909275532,-70.55237579,11.02074242
2.464682001,-31.70848846,-58.84668732,1.401595831
2.474682001,-31.70848846,-58.84668732,1.401595831
2.474682001,-37.96811295,-47.82056046,-0.297308207
2.494682001,-33.9960289,-28.63490868,1.932802439
2.504682001,-24.00838661,-27.72563553,1.286740422
2.514682001,-13.2215414,-22.81077766,-4.427320004
2.524682001,-10.53200912,-20.65245247,-7.442276478
2.534682001,-8.823533058,-19.90589142,-10.3663063
2.544682001,-8.713463783,-18.92962074,-12.68255806
2.554682001,-8.713463783,-18.92962074,-12.68255806
2.564682001,-10.16351414,-16.95314789,-13.2329073
2.574682001,-10.6612215,-16.05344772,-12.55813122
2.584682001,-11.03928757,-14.22054482,-11.02193928
2.594682001,-11.33599758,-13.58405399,-10.82094193
2.604682001,-11.55613708,-12.77528,-10.39023399
2.614682001,-11.62313557,-11.90429306,-9.882955551
2.624682001,-11.82413292,-10.70788097,-9.624530792
2.634682001,-11.53220844,-9.521040916,-9.385248184
2.644682001,-11.53220844,-9.521040916,-9.385248184
2.654682001,-11.53220844,-9.521040916,-9.385248184
2.664682001,-11.53220844,-9.521040916,-9.385248184
2.674682001,-4.851448059,-9.372686386,-11.60578823
2.684682001,-3.81296277,-9.588040352,-11.92642593
2.694682001,-3.81296277,-9.588040352,-11.92642593
2.704682001,-1.903490424,-10.08096218,-11.54357433
2.714682001,-1.903490424,-10.08096218,-11.54357433
2.724682001,0.001196411,-9.430113792,-10.47159004
2.734682001,0.297906429,-9.875179291,-10.69172955
2.744682001,0.049052864,-10.17188931,-11.19900799
2.754682001,-0.300299227,-9.722038269,-11.41914749
2.764682001,-0.893719256,-8.937192917,-11.32822037
2.774682001,-1.377069473,-8.219346046,-10.74915791
2.784682001,-1.377069473,-8.219346046,-10.74915791
2.794682001,-0.769292474,-8.185846329,-9.849455833
2.804682001,-0.281156659,-8.094919205,-9.471389771
2.814682001,0.427118838,-8.123632431,-9.050253868
2.824682001,1.168893814,-8.10449028,-8.437690735
2.834682001,1.168893814,-8.10449028,-8.437690735
2.844682001,1.168893814,-8.10449028,-8.437690735
2.854682001,3.848855257,-7.501499176,-2.996412039
2.854682001,1.168893814,-8.10449028,-8.437690735
2.874682001,5.729613781,-7.635497093,-0.000598206
2.884682001,6.777669907,-7.678567886,1.191027522
2.894682001,7.758727551,-7.587640762,2.071586132
2.904682001,9.299705505,-7.645068169,2.980858803
2.914682001,9.893125534,-8.185846329,2.947359324
2.924682001,10.2089777,-8.95154953,2.71286273
2.934682001,10.18026352,-9.650253296,2.736790895
2.944682001,9.917053223,-10.06660461,3.507279873
2.954682001,9.572486877,-10.25324535,5.024329185
2.964682001,8.734998703,-10.66959572,8.297710419
2.974682001,8.734998703,-10.66959572,8.297710419
2.984682001,8.734998703,-10.66959572,8.297710419
2.994682001,8.041080475,-10.67438221,9.202198029
3.004682001,8.610571861,-11.10509014,8.34556675
3.014682001,9.428917885,-11.60279655,7.3980093
3.024682001,10.328619,-11.99043465,6.641877651
3.034682001,11.54417324,-12.59342575,6.129813194
3.044682001,11.75952721,-12.53121185,6.369095802
3.054682001,11.69252777,-12.38764286,6.87158823
3.064682001,11.33360481,-12.39721394,7.321439266
3.074682001,10.89811039,-12.47856998,7.594220638
3.084682001,10.48654556,-12.79920864,7.804789066
3.094682001,10.03190899,-13.90947819,8.235497475
3.104682001,10.33819008,-15.18245983,8.398209572
3.114682001,10.33819008,-15.18245983,8.398209572
3.124682001,10.33819008,-15.18245983,8.398209572
3.134682001,11.44845963,-18.2596302,9.680762291
3.144682001,11.84088326,-18.21177292,9.80997467
3.154682001,12.1854496,-17.8959198,9.675976753
3.164682001,12.1854496,-17.8959198,9.675976753
3.174682001,12.1854496,-17.8959198,9.675976753
3.184682001,11.71645641,-16.65643883,6.354738712
3.194682001,10.83111191,-16.47937012,5.373681545
3.204682001,10.14197922,-16.34058571,4.69411993
3.214682001,9.763913155,-16.75215149,4.325624943
3.224682001,9.763913155,-16.75215149,4.325624943
3.234682001,9.763913155,-16.75215149,4.325624943
3.244682001,12.88415337,-19.98246193,9.130413055
3.254682001,12.88415337,-19.98246193,9.130413055
3.264682001,16.34417534,-19.4273262,9.76211834
3.274682001,18.24407578,-19.28375816,8.91505909
3.284682001,19.83769608,-19.6522522,7.369295597
3.294682001,21.2590332,-19.66182327,4.115056515
3.304682001,21.85245323,-19.04447556,3.067000389
3.314682001,22.50329971,-18.37927055,2.483151674
3.324682001,23.59921265,-18.02991867,2.578864574
3.334682001,25.26461792,-17.99163437,3.244069338
3.344682001,28.0737915,-17.87677765,4.191627026
3.354682001,33.00300598,-17.53699684,4.904688358
3.364682001,35.40061569,-16.5655117,4.741976261
3.374682001,36.8698082,-15.55095482,3.646063566
3.384682001,36.8698082,-15.55095482,3.646063566
3.394682001,36.91287994,-15.00060558,-0.823729217
3.404682001,35.68775177,-14.60339642,-3.063411236
3.414682001,35.68775177,-14.60339642,-3.063411236
3.424682001,35.68775177,-14.60339642,-3.063411236
3.434682001,29.50948524,-16.42194176,-3.503690481
3.444682001,28.38964462,-17.42692757,-1.225723386
3.454682001,27.82972336,-18.39362717,1.262812138
3.464682001,27.80101013,-19.29332924,3.239283562
3.474682001,28.1742897,-20.4179554,4.038486481
3.484682001,28.1742897,-20.4179554,4.038486481
3.494682001,32.17987442,-27.61556625,1.861017823
3.504682001,33.49114227,-31.20479965,1.798804402
3.514682001,34.81676483,-34.38246918,3.325425386
3.524682001,36.53959656,-37.36870956,6.68016243
3.534682001,39.17170334,-40.53202438,11.27438164
3.544682001,39.17170334,-40.53202438,11.27438164
3.554682001,39.17170334,-40.53202438,11.27438164
3.564682001,44.39284134,-55.02774048,16.26102448
3.574682001,42.69872284,-60.94758606,15.45703602
3.584682001,40.0953331,-66.09215546,15.90210152
3.594682001,36.35774231,-68.43711853,17.39522171
3.604682001,32.63929749,-68.92047119,18.67777443
3.614682001,26.95395088,-67.92505646,17.25165367
3.624682001,23.2785759,-67.04449463,14.58604908
3.634682001,19.67976952,-65.13502502,12.08794212
3.644682001,17.38265991,-63.80940247,10.76231766
3.654682001,15.98046589,-63.70890427,10.51825047
3.664682001,15.48275852,-63.8141861,11.68594742
3.674682001,15.48275852,-63.8141861,11.68594742
3.684682001,15.48275852,-63.8141861,11.68594742
3.694682001,14.01356602,-63.06283951,19.84547234
3.704682001,8.285148621,-62.08178329,16.69173241
3.714682001,1.829312921,-60.89494324,12.73400402
3.724682001,-4.727021217,-57.6646347,10.1210413
3.734682001,-10.93878841,-52.82155991,8.331210136
3.744682001,-19.13659859,-43.15455627,3.679563046
3.754682001,-19.13659859,-43.15455627,3.679563046
3.764682001,-19.13659859,-43.15455627,3.679563046
3.774682001,-24.22852516,-34.9136734,-5.312664509
3.784682001,-26.98984337,-29.76432037,-8.193622589
3.794682001,-28.52124977,-24.45704079,-9.734601021
3.804682001,-28.52124977,-24.45704079,-9.734601021
3.814682001,-18.67239189,-21.26022911,-12.30927753
3.824682001,-15.38943863,-20.58545303,-14.33360577
3.834682001,-13.68096352,-18.96311951,-16.78385544
3.844682001,-12.87697506,-17.3934269,-18.62154388
3.854682001,-13.01575851,-16.16830254,-19.62652969
3.864682001,-13.96331692,-14.61296749,-19.55953026
3.874682001,-13.96331692,-14.61296749,-19.55953026
3.884682001,-13.96331692,-14.61296749,-19.55953026
3.894682001,-13.96331692,-14.61296749,-19.55953026
3.904682001,-13.96331692,-14.61296749,-19.55953026
3.914682001,-8.014759064,-10.89452171,-16.33879089
3.924682001,-5.583651543,-11.15773201,-16.56850243
3.934682001,-5.583651543,-11.15773201,-16.56850243
3.944682001,-2.090130568,-10.64566803,-14.81695557
3.954682001,-0.769292474,-11.03330517,-13.71625805
3.964682001,-0.386440843,-10.97587776,-13.12283802
3.974682001,-0.314656168,-10.48774147,-12.5868454
3.984682001,-0.530010223,-9.884750366,-11.96471119
3.994682001,-0.530010223,-9.884750366,-11.96471119
4.004682001,-0.4869394,-9.487542152,-10.5098753
4.014682001,-0.209371984,-9.458827972,-9.734601021
4.024682001,0.096909314,-9.836894035,-8.787042618
4.034682001,0.527617395,-10.16231823,-7.767700672
4.044682001,1.168893814,-10.22453117,-6.753143787
4.054682001,1.91066885,-10.30110168,-5.863013744
4.064682001,1.91066885,-10.30110168,-5.863013744
4.074682001,3.714857101,-10.54038334,-3.082553864
4.084682001,4.327419758,-10.23888779,-1.790429592
4.094682001,4.327419758,-10.23888779,-1.790429592
4.104682001,4.327419758,-10.23888779,-1.790429592
4.114682001,5.959324837,-9.64068222,1.06660068
4.124682001,5.959324837,-9.64068222,1.06660068
4.134682001,5.609972477,-9.856036186,2.71286273
4.144682001,4.935196877,-9.631111145,4.244269371
4.154682001,4.858626366,-9.559326172,6.570092678
4.164682001,5.47597456,-9.812965393,9.116056442
4.174682001,5.47597456,-9.812965393,9.116056442
4.184682001,8.730213165,-10.45424175,12.7627182
4.194682001,8.730213165,-10.45424175,12.7627182
4.204682001,8.730213165,-10.45424175,12.7627182
4.214682001,8.730213165,-10.45424175,12.7627182
4.214682001,12.67358494,-10.78923702,5.507679462
4.234682001,13.31964684,-10.61695385,3.818346739
4.244682001,14.18106365,-10.62173939,4.651049137
4.254682001,14.18106365,-10.62173939,4.651049137
4.264682001,17.29173279,-11.45444202,5.904888153
4.274682001,17.82293892,-11.78465176,4.832903385
4.284682001,17.82293892,-11.78465176,4.832903385
4.294682001,17.62194252,-12.31585789,2.952144861
4.304682001,16.93280983,-12.21535969,2.645863533
4.314682001,16.16232109,-11.54058361,3.157927752
4.324682001,16.16232109,-11.54058361,3.157927752
4.334682001,16.18624878,-10.23888779,5.813961029
4.344682001,16.38245964,-10.11446095,5.699105263
4.354682001,16.46860123,-9.923035622,4.895116806
4.364682001,16.39203072,-9.69811058,3.287140131
4.374682001,16.39203072,-9.69811058,3.287140131
4.384682001,16.39203072,-9.69811058,3.287140131
4.394682001,16.39203072,-9.69811058,3.287140131
4.404682001,13.13779259,-12.0670042,-1.024726272
4.414682001,12.65444279,-12.17707443,-0.416949332
4.424682001,12.65444279,-12.17707443,-0.416949332
4.434682001,13.3770752,-11.75593758,0.530608416
4.444682001,15.49711609,-11.88993549,0.391824722
4.454682001,15.99960899,-11.44008541,0.01375873
4.464682001,16.27239037,-11.31565857,-0.689731121
4.474682001,16.36810303,-11.40180016,-1.541576028
4.484682001,16.19581985,-11.64586735,-2.044068813
4.494682001,16.12882042,-12.11486149,-1.924427629
4.504682001,16.59302902,-12.67956734,-1.1395818
4.514682001,16.59302902,-12.67956734,-1.1395818
4.524682001,20.37847328,-13.31127262,3.971487284
4.534682001,22.52244377,-13.97169113,5.478965759
4.544682001,24.94397926,-14.68475246,6.512664795
4.554682001,24.94397926,-14.68475246,6.512664795
4.564682001,29.75833893,-15.66580963,6.818946362
4.574682001,33.50071335,-15.58923912,4.799404144
4.584682001,33.70649719,-15.64666748,3.244069338
4.594682001,33.70649719,-15.64666748,3.244069338
4.604682001,33.3188591,-15.1346035,1.05224371
4.614682001,32.70629501,-15.15374565,1.301097274
4.624682001,32.0889473,-15.0723896,1.870589137
4.634682001,31.28495979,-14.71825218,1.526022673
4.644682001,29.33720207,-15.42652798,2.822932482
4.654682001,27.89672279,-15.38824272,3.88056016
4.664682001,26.8055954,-14.84267902,4.550550461
4.674682001,27.04487801,-15.05803299,3.899702787
4.684682001,28.47100067,-16.18744469,1.72223413
4.694682001,30.14597702,-17.29771423,-0.986441135
4.704682001,30.14597702,-17.29771423,-0.986441135
4.714682001,30.14597702,-17.29771423,-0.986441135
4.724682001,30.14597702,-17.29771423,-0.986441135
4.734682001,30.14597702,-17.29771423,-0.986441135
4.744682001,39.26741409,-33.93740463,-1.441077471
4.754682001,39.32962799,-39.23511124,-0.321236432
4.764682001,37.31966019,-45.36552429,0.889531791
4.774682001,29.72005272,-51.85007477,9.594620705
4.784682001,27.42772865,-53.79783249,15.76331711
4.794682001,26.91087914,-54.78367615,21.42952156
4.804682001,28.21736145,-55.60202026,24.53540611
4.814682001,30.50489998,-56.55436325,24.03769875
4.824682001,31.74438095,-57.73163223,20.41975021
4.834682001,31.74438095,-57.73163223,20.41975021
4.844682001,31.73959541,-68.89654541,13.36092377
4.854682001,29.51905632,-76.02236938,15.04547024
4.864682001,22.92443657,-77.56334686,18.81655884
4.874682001,16.08575058,-74.05068207,24.18605232
4.884682001,12.31466198,-71.35157776,27.29672241
4.894682001,10.44347477,-70.58109283,25.4638195
4.904682001,0.508474827,-68.33183289,12.02572823
4.914682001,-7.507481098,-65.484375,6.019743443
4.924682001,-16.82513237,-60.63652039,0.406181633
4.934682001,-16.82513237,-60.63652039,0.406181633
4.944682001,-34.24966812,-45.55694962,-9.662816048
4.954682001,-39.02574158,-38.16791534,-13.64447308
4.964682001,-39.02574158,-38.16791534,-13.64447308
4.974682001,-39.02574158,-38.16791534,-13.64447308
4.984682001,-39.02574158,-38.16791534,-13.64447308
4.994682001,-25.39143753,-16.13958931,-11.44307613
5.004682001,-20.40000916,-15.10588932,-12.25663567
5.014682001,-16.57627869,-14.34497166,-13.26162148
5.024682001,-16.57627869,-14.34497166,-13.26162148
5.034682001,-13.3220396,-12.62213898,-15.23809242
5.044682001,-14.05902958,-12.04307652,-14.76909924
5.054682001,-14.44666672,-11.46879864,-12.52941799
5.064682001,-14.14517117,-10.94716358,-9.14596653
5.074682001,-14.14517117,-10.94716358,-9.14596653
5.084682001,-11.76670551,-9.190832138,-3.465405464
5.094682001,-11.76670551,-9.190832138,-3.465405464
5.104682001,-4.880161762,-7.070790768,-2.809772015
5.114682001,-4.880161762,-7.070790768,-2.809772015
5.124682001,-4.880161762,-7.070790768,-2.809772015
5.134682001,-1.300499082,-6.003592014,-9.662816048
5.144682001,-1.190429211,-5.788238049,-11.56750298
5.154682001,-1.491924882,-5.467599869,-12.86441231
5.164682001,-1.683350682,-5.19481802,-11.86899853
5.174682001,-1.716850281,-4.931607246,-10.20837975
5.184682001,-1.410568953,-4.864608288,-8.490332603
5.194682001,-0.884147942,-4.797609329,-7.222136974
5.204682001,-0.305084884,-4.634897232,-6.22193718
5.214682001,0.192622229,-4.701896667,-5.528018475
5.224682001,-0.089730851,-5.395814896,-5.355735302
5.234682001,-0.089730851,-5.395814896,-5.355735302
5.244682001,-0.525224566,-5.448457241,-3.714258909
5.254682001,-0.319441825,-5.673382282,-2.627917528
5.264682001,0.087338023,-5.558526993,-1.65164578
5.274682001,0.786042213,-5.285745144,-0.828514814
5.284682001,0.786042213,-5.285745144,-0.828514814
5.294682001,0.786042213,-5.285745144,-0.828514814
5.304682001,0.786042213,-5.285745144,-0.828514814
5.314682001,4.94955349,-5.5154562,0.008973085
5.324682001,5.069194794,-5.869594097,-0.737587571
5.334682001,5.179264545,-6.419943333,-1.374078393
5.344682001,5.370690346,-7.357929707,-1.670788407
5.354682001,5.542973518,-9.602396965,-1.225723386
5.364682001,5.542973518,-9.602396965,-1.225723386
5.374682001,5.87318325,-10.25803089,1.640878081
5.384682001,7.356733322,-10.72702408,3.789632797
5.394682001,9.361918449,-11.4831562,5.699105263
5.404682001,11.32403278,-12.22014523,7.096513748
5.414682001,11.32403278,-12.22014523,7.096513748
5.424682001,11.32403278,-12.22014523,7.096513748
5.434682001,14.56391525,-13.29691505,3.765704632
5.444682001,14.65962791,-14.37847137,2.48793745
5.454682001,14.74098396,-15.47438431,1.669592023
5.464682001,14.61177158,-16.26880074,1.143171072
5.474682001,14.60698605,-16.61336708,1.569093466
5.484682001,15.06640816,-16.32144356,4.646263599
5.494682001,15.62632847,-16.32144356,6.56530714
5.504682001,16.13839149,-16.21615982,8.125427246
5.514682001,16.36331749,-15.87637806,8.862417221
5.524682001,16.08575058,-15.58445358,8.364709854
5.534682001,15.5114727,-15.24467278,6.986443996
5.544682001,15.5114727,-15.24467278,6.986443996
5.554682001,15.5114727,-15.24467278,6.986443996
5.564682001,13.18564892,-14.77089405,4.938187599
5.574682001,12.88415337,-15.19203091,5.723033428
5.584682001,12.7310133,-15.36909962,6.57966423
5.594682001,12.48694515,-15.32124329,7.268796921
5.604682001,12.1663065,-15.23031616,7.364510059
5.614682001,12.41994572,-15.10588932,6.747161865
5.624682001,13.1521492,-15.01974773,5.943173409
5.634682001,14.14756393,-14.96710587,4.962115765
5.644682001,15.18604851,-15.09153271,4.220340729
5.654682001,16.31546211,-15.40259933,3.923630953
5.664682001,17.33001709,-15.31167221,3.875774384
5.674682001,19.24906158,-14.34975719,3.617349625
5.684682001,19.24906158,-14.34975719,3.617349625
5.694682001,19.24906158,-14.34975719,3.617349625
5.704682001,21.55095673,-12.86620712,1.583450437
5.714682001,21.79502487,-12.23928738,0.769890666
5.724682001,22.06780624,-11.65065384,0.2434697
5.734682001,22.06780624,-11.65065384,0.2434697
5.744682001,22.06780624,-11.65065384,0.2434697
5.754682001,25.71925354,-11.1433754,0.784247637
5.764682001,27.58565521,-10.85623646,0.745962441
5.774682001,27.58565521,-10.85623646,0.745962441
5.784682001,30.9595356,-11.21994495,1.229312658
5.794682001,32.40001678,-11.53101254,1.085743308
5.804682001,32.40001678,-11.53101254,1.085743308
5.814682001,32.40001678,-11.53101254,1.085743308
5.824682001,30.7585392,-15.34995747,-4.341178417
5.834682001,30.20340347,-17.22114372,-5.432305813
5.844682001,29.08834839,-18.89612007,-4.89631319
5.854682001,27.72922516,-20.92523384,-2.915056229
5.864682001,27.72922516,-20.92523384,-2.915056229
5.874682001,24.40798759,-25.13181686,1.889731646
5.884682001,25.44168663,-26.28515625,1.01874423
5.894682001,27.54258537,-27.62035179,-0.91465646
5.904682001,29.29891777,-29.41975403,-2.934198856
5.914682001,30.78725243,-31.50629616,-3.996612072
5.924682001,32.10330582,-33.99004745,-3.034697294
5.934682001,35.42932892,-39.64667892,2.641077995
5.944682001,37.24787521,-43.21677017,5.292325497
5.954682001,38.97070694,-47.35156631,7.627720356
5.964682001,40.46861267,-51.15615463,10.05882835
5.974682001,41.90909195,-54.98467255,12.50907898
5.984682001,42.78486633,-59.17689514,14.34198093
5.994682001,42.78486633,-59.17689514,14.34198093
6.004682001,42.78486633,-59.17689514,14.34198093
6.014682001,42.78486633,-59.17689514,14.34198093
6.024682001,42.78486633,-59.17689514,14.34198093
6.034682001,23.69971275,-70.33223724,25.325037
6.044682001,25.86760902,-72.51927948,25.47339249
6.054682001,28.75335312,-78.5970459,24.2961235
6.064682001,21.42653084,-85.01937866,25.2628231
6.074682001,14.28156185,-84.13882446,27.16751099
6.084682001,8.390432358,-79.64031982,27.94278526
6.094682001,4.576273441,-72.24170685,26.14338112
6.104682001,2.992224693,-64.46025085,22.77428818
6.114682001,3.236292601,-58.03791428,18.41456413
6.124682001,4.470989227,-55.54459381,10.75753212
6.134682001,0.69511497,-61.50750732,9.293125153
6.144682001,-10.70907784,-62.86663055,7.608577728
6.154682001,-25.27179718,-58.21019745,6.943373203
6.164682001,-38.63331985,-47.29413986,6.799803734
6.174682001,-46.64927292,-32.84627533,7.599006653
6.184682001,-37.29812241,-25.10788727,9.135198593
6.194682001,-37.29812241,-25.10788727,9.135198593
6.204682001,-21.24706841,-24.52404022,-0.91465646
6.214682001,-21.24706841,-24.52404022,-0.91465646
6.224682001,-18.35653877,-20.38445663,-17.13799477
6.234682001,-20.15115547,-17.46042633,-22.78026962
6.244682001,-21.76391792,-15.56052589,-24.41217422
6.254682001,-21.76391792,-15.56052589,-24.41217422
6.264682001,-20.52922249,-14.19661713,-16.26700592
6.274682001,-18.16511345,-13.4213419,-13.86939812
6.284682001,-15.53300858,-13.30170155,-13.26640701
6.294682001,-12.92961693,-12.45942783,-13.0893383
6.304682001,-9.804591179,-11.44965649,-12.76391411
6.314682001,-3.946960926,-10.91366386,-13.38604832
6.324682001,-1.668993831,-10.5978117,-13.92203999
6.334682001,0.350548506,-10.36810017,-13.96989727
6.344682001,2.063809633,-10.56909752,-13.89332676
6.354682001,3.183650494,-10.62652493,-13.91246891
6.364682001,3.791427374,-10.57866859,-13.60618782
6.374682001,3.978067636,-10.56431198,-12.99841118
6.384682001,3.978067636,-10.56431198,-12.99841118
6.394682001,3.978067636,-10.56431198,-12.99841118
6.404682001,3.978067636,-10.56431198,-12.99841118
6.414682001,0.561116934,-9.755537987,-6.848856449
6.424682001,-0.635294437,-9.114261627,-5.355735302
6.434682001,-1.630708575,-8.386843681,-4.322035789
6.444682001,-2.659622431,-7.779066563,-3.915256023
6.454682001,-2.874976397,-7.807780266,-4.221537113
6.464682001,-2.894119024,-7.89870739,-4.144967079
6.474682001,-2.807977438,-7.936992645,-3.68075943
6.484682001,-2.673979282,-7.946564198,-2.857628345
6.494682001,-2.401197433,-7.994420528,-1.450648785
6.504682001,-1.774278045,-8.080561638,0.535394073
6.514682001,-1.774278045,-8.080561638,0.535394073
6.524682001,-1.774278045,-8.080561638,0.535394073
6.534682001,-1.774278045,-8.080561638,0.535394073
6.544682001,2.915654421,-8.137989998,3.827918053
6.554682001,2.953939438,-7.755138397,2.760719061
6.564682001,2.834298372,-7.673782349,1.631306887
6.574682001,2.743371248,-8.185846329,0.473180681
6.584682001,2.767299414,-8.405985832,0.463609397
6.594682001,2.843869686,-8.61655426,0.789033294
6.604682001,2.977867842,-9.013762474,1.602592945
6.614682001,3.360719442,-9.59282589,2.497508526
6.624682001,4.049852371,-10.45424175,3.153141975
6.634682001,6.136393547,-12.98584843,4.962115765
6.644682001,7.318448067,-14.25883007,5.828317642
6.654682001,7.318448067,-14.25883007,5.828317642
6.664682001,7.318448067,-14.25883007,5.828317642
6.674682001,9.328418732,-16.27358627,5.761318684
6.684682001,9.328418732,-16.27358627,5.761318684
6.694682001,10.24726295,-17.43649864,4.517050743
6.704682001,10.24726295,-17.43649864,4.517050743
6.714682001,10.24726295,-17.43649864,4.517050743
6.724682001,11.05125141,-20.17388725,3.186641455
6.734682001,11.05125141,-20.17388725,3.186641455
6.744682001,11.0943222,-21.02573204,5.794818401
6.754682001,11.30489063,-21.62872314,7.522436142
6.764682001,11.30489063,-21.62872314,7.522436142
6.774682001,13.57328606,-22.82513428,11.03988552
6.784682001,14.22891998,-22.59542465,10.89153004
6.794682001,14.65484238,-22.09293175,9.943972588
6.804682001,14.91326714,-21.60958099,8.632705688
6.814682001,15.0711937,-21.41815567,7.354938507
6.824682001,15.16690636,-21.0831604,6.239883423
6.834682001,15.16690636,-21.0831604,6.239883423
6.844682001,15.16690636,-21.0831604,6.239883423
6.854682001,15.16690636,-21.0831604,6.239883423
6.864682001,15.16690636,-21.0831604,6.239883423
6.874682001,16.85145378,-18.96790504,8.546564102
6.884682001,17.35873222,-17.85284996,9.288339615
6.894682001,17.35873222,-17.85284996,9.288339615
6.904682001,19.48834419,-14.82353592,7.378866673
6.914682001,20.01955032,-13.6606245,5.560321808
6.924682001,20.60339928,-12.65085316,3.808775425
6.934682001,21.5844574,-11.90429306,2.373081923
6.944682001,21.99602127,-11.82772255,1.262812138
6.954682001,22.36930275,-11.97607708,1.085743308
6.964682001,24.55155754,-11.95214939,3.138785124
6.974682001,26.48495674,-12.05743313,4.225126743
6.984682001,26.48495674,-12.05743313,4.225126743
6.994682001,30.83989525,-12.58864021,4.703691006
7.004682001,32.46701431,-12.95713425,3.674777269
7.014682001,33.2805748,-13.06720448,1.588235974
7.024682001,33.2805748,-13.06720448,1.588235974
7.034682001,34.22813034,-15.12981796,-5.169095039
7.044682001,33.98884964,-16.84307861,-5.863013744
7.054682001,32.87379456,-17.6949234,-4.781457901
7.064682001,31.44288635,-18.63769531,-2.345564365
7.074682001,29.84926605,-19.59960938,0.114257284
7.084682001,28.40878677,-20.30310059,2.033301115
7.094682001,28.40878677,-20.30310059,2.033301115
7.104682001,27.59522629,-25.10788727,1.511665702
7.114682001,26.83909607,-28.161129,-0.737587571
7.124682001,25.8388958,-29.98924637,-2.776272535
7.134682001,25.25504684,-31.31008339,-3.355335474
7.144682001,25.32204628,-32.30071259,-2.656631231
7.154682001,25.32204628,-32.30071259,-2.656631231
7.164682001,25.32204628,-32.30071259,-2.656631231
7.174682001,29.80619621,-38.37369537,5.522036552
7.184682001,31.37588692,-41.27858353,7.039085865
7.194682001,32.9168663,-44.26482773,8.709276199
7.204682001,34.40520096,-47.46163559,11.07338524
7.214682001,34.40520096,-47.46163559,11.07338524
7.224682001,34.40520096,-47.46163559,11.07338524
7.234682001,34.40520096,-47.46163559,11.07338524
7.234682001,30.61975479,-60.14359665,22.32443619
7.254682001,26.49931526,-64.2401123,25.35375023
7.264682001,24.69034004,-66.77650452,25.28196526
7.274682001,22.78086853,-70.69116211,24.06641197
7.284682001,13.55892944,-78.84590149,20.25703812
7.294682001,5.251049519,-78.16155243,19.13241196
7.304682001,-1.831705689,-75.29495239,19.93639946
7.314682001,-7.909475327,-72.69634247,20.07996941
7.324682001,-15.16929913,-69.25067902,19.21376801
7.334682001,-15.16929913,-69.25067902,19.21376801
7.344682001,-15.16929913,-69.25067902,19.21376801
7.354682001,-42.01198196,-45.05924225,-7.236494064
7.364682001,-45.50071716,-36.21058655,-11.055439
7.374682001,-45.42414856,-30.44866753,-9.184251785
7.384682001,-42.02634048,-27.70170784,-5.178666592
7.394682001,-38.1882515,-24.52404022,-1.661217093
7.404682001,-35.50829315,-20.81516457,-1.4267205
7.414682001,-31.52184868,-13.19641685,-6.973283291
7.424682001,-29.16731071,-10.55952644,-10.0265255
7.434682001,-25.73121834,-9.281759262,-11.60578823
7.444682001,-21.61556244,-8.831908226,-11.82592773
7.454682001,-18.00718689,-8.185846329,-11.26122189
7.464682001,-15.1788702,-7.027719975,-10.85922718
7.474682001,-15.1788702,-7.027719975,-10.85922718
7.484682001,-15.1788702,-7.027719975,-10.85922718
7.494682001,-15.1788702,-7.027719975,-10.85922718
7.504682001,-4.176671982,-5.467599869,-8.983254433
7.514682001,-2.688336134,-5.108676434,-9.174679756
7.524682001,-1.87956214,-4.965106964,-9.954740524
7.534682001,-1.180858016,-4.840680122,-10.51466084
7.544682001,-1.180858016,-4.840680122,-10.51466084
7.554682001,0.843469977,-5.630311489,-9.643673897
7.564682001,1.034895778,-5.486742496,-7.920841217
7.574682001,1.221535921,-5.213960648,-5.839085579
7.584682001,1.628315806,-4.984249592,-3.939184189
7.594682001,2.039881229,-4.912465096,-2.867199659
7.604682001,2.039881229,-4.912465096,-2.867199659
7.604682001,3.413361549,-4.888536453,-1.431506157
7.624682001,4.068994999,-4.969892502,-2.474776745
7.634682001,3.499503136,-4.85982275,-3.96789813
7.644682001,2.709871531,-4.620540619,-5.437091351
7.654682001,2.082952023,-4.563112736,-6.470790863
7.664682001,1.700100541,-4.783252239,-6.930212498
7.674682001,1.073180914,-4.582255363,-5.207380295
7.684682001,1.231107235,-4.433900356,-3.254837036
7.694682001,1.661815286,-4.711467743,-1.599003673
7.704682001,2.370090723,-5.333601475,-0.450448871
7.714682001,3.279363394,-6.089733601,0.468395025
7.724682001,4.179064751,-6.879364967,1.128814101
7.734682001,4.394418716,-8.300702095,0.908674419
7.744682001,4.394418716,-8.300702095,0.908674419
7.754682001,4.394418716,-8.300702095,0.908674419
7.764682001,2.915654421,-9.46361351,-1.364507079
7.774682001,3.040081263,-9.980463028,-1.455434322
7.784682001,3.442075491,-10.59302616,-0.986441135
7.794682001,3.442075491,-10.59302616,-0.986441135
7.804682001,5.059623718,-13.30648708,2.47358036
7.814682001,5.686542988,-14.29711533,5.187041283
7.824682001,6.026323795,-15.17767429,6.862017155
7.834682001,6.126822472,-15.9003067,7.474579811
7.844682001,6.078966141,-16.5655117,7.41236639
7.854682001,6.141179085,-17.24028778,7.07737112
7.864682001,6.495316982,-18.94876289,6.699305058
7.874682001,6.906882763,-19.93939018,7.177869797
7.884682001,7.514659405,-21.25065804,7.871788502
7.894682001,8.443074226,-22.78684998,8.58006382
7.904682001,9.53898716,-24.51446724,9.082556725
7.914682001,10.4291172,-26.22294426,9.259625435
7.924682001,11.00818062,-28.05105972,10.08275604
7.934682001,10.67318535,-28.18984413,10.81017494
7.944682001,10.44347477,-28.21855736,11.59980583
7.954682001,10.65882874,-28.66840744,12.01137161
7.964682001,11.30489063,-29.06083107,12.22672558
7.974682001,12.08016491,-28.96033287,12.27458191
7.984682001,12.80279732,-28.63490868,12.15494061
7.994682001,12.80279732,-28.63490868,12.15494061
8.004682001,15.68854141,-27.99363136,10.67139053
8.014682001,15.68854141,-27.99363136,10.67139053
8.014682001,17.01895142,-27.68735123,10.34596729
8.034682001,20.80918121,-26.05544662,10.20718288
8.044682001,22.94358063,-25.48116875,9.920044899
8.054682001,26.20738983,-24.21297264,9.154341698
8.064682001,27.36551666,-23.0022049,9.06341362
8.074682001,28.67199707,-21.59043884,8.986844063
8.084682001,28.67199707,-21.59043884,8.986844063
8.094682001,30.95475006,-17.27378654,7.943572998
8.104682001,32.18466187,-15.2542448,6.747161865
8.114682001,33.93620682,-13.39741421,5.263611794
8.124682001,33.93620682,-13.39741421,5.263611794
8.134682001,33.93620682,-13.39741421,5.263611794
8.144682001,39.35834503,-8.372486115,-1.039083242
8.154682001,38.95156479,-8.401200294,-1.029511929
8.164682001,38.95156479,-8.401200294,-1.029511929
8.164682001,38.05186081,-9.420542717,-0.67537421
8.184682001,31.60559845,-10.84666538,0.329611331
8.194682001,30.44268608,-12.03350544,0.817747116
8.204682001,29.39941597,-13.69412422,1.277169108
8.214682001,29.39941597,-13.69412422,1.277169108
8.224682001,28.53800011,-16.96271896,3.181855917
8.234682001,28.64806938,-19.57568169,4.143770695
8.244682001,28.64806938,-19.57568169,4.143770695
8.254682001,28.48535728,-27.44806862,9.015557289
8.264682001,29.33720207,-30.42473984,11.96351528
8.274682001,30.97389221,-33.51626587,15.06939888
8.284682001,33.0795784,-36.71307755,17.21336746
8.294682001,35.71168137,-39.93381882,18.60120583
8.304682001,38.16193008,-42.80041885,19.48176384
8.314682001,40.66960907,-47.75356293,22.4010067
8.324682001,41.4257431,-49.83053207,25.19582367
8.334682001,41.7511673,-50.91208649,28.56491852
8.344682001,42.42594147,-52.88855743,30.98645592
8.354682001,43.07200241,-54.90810013,30.99124146
8.364682001,42.55994034,-57.51627731,28.77548599
8.374682001,38.6404953,-68.99703979,25.84188652
8.384682001,38.6404953,-68.99703979,25.84188652
8.394682001,38.6404953,-68.99703979,25.84188652
8.404682001,24.53719902,-74.83074188,27.12922478
8.414682001,24.53719902,-74.83074188,27.12922478
8.424682001,22.76172447,-84.51210022,26.38744926
8.434682001,17.51665878,-87.59884644,24.64547539
8.444682001,17.51665878,-87.59884644,24.64547539
8.454682001,17.51665878,-87.59884644,24.64547539
8.464682001,-4.459024906,-72.4235611,13.98305702
8.474682001,-4.459024906,-72.4235611,13.98305702
8.484682001,-9.34038353,-64.05825806,4.880760193
8.494682001,-16.25085449,-61.36393738,-1.311864972
8.504682001,-16.25085449,-61.36393738,-1.311864972
8.514682001,-16.25085449,-61.36393738,-1.311864972
8.524682001,-45.40979004,-36.1053009,-8.892327309
8.534682001,-44.62494659,-29.88396263,-2.120639086
8.544682001,-44.62494659,-29.88396263,-2.120639086
8.554682001,-32.8666153,-21.62872314,4.885545731
8.564682001,-26.56870651,-18.3984127,3.043072224
8.574682001,-17.78704643,-13.72762394,-6.41336298
8.584682001,-15.0209446,-13.08156109,-11.25164986
8.594682001,-13.96810246,-12.94756317,-14.51067448
8.604682001,-14.38923931,-12.70349503,-15.29552078
8.614682001,-16.18385506,-12.53121185,-14.97009659
8.624682001,-18.09332848,-11.966506,-13.8981123
8.634682001,-18.59582138,-10.52602673,-11.51964664
8.644682001,-18.59582138,-10.52602673,-11.51964664
8.654682001,-15.47558022,-8.611768723,-10.13180923
8.664682001,-15.47558022,-8.611768723,-10.13180923
8.674682001,-10.65643597,-7.850851059,-13.00319672
8.684682001,-8.900103569,-8.238488197,-15.42473316
8.694682001,-7.765905857,-8.554341316,-17.16670799
8.704682001,-6.090929985,-9.43489933,-16.15693665
8.714682001,-5.55493784,-9.884750366,-13.71625805
8.724682001,-5.334797859,-10.04746246,-10.59601688
8.734682001,-4.928018093,-10.02353382,-7.289135933
8.744682001,-4.109673023,-10.16231823,-4.666602135
8.754682001,-3.181257725,-10.34417248,-2.953341246
8.764682001,-1.884347796,-10.2723875,-2.168495417
8.774682001,-1.47756803,-10.01874828,-2.92941308
8.784682001,-1.281356573,-9.707681656,-4.17846632
8.794682001,-1.281356573,-9.707681656,-4.17846632
8.804682001,-1.281356573,-9.707681656,-4.17846632
8.804682001,-1.142572761,-9.305686951,-5.317450047
8.824682001,-1.142572761,-9.305686951,-5.317450047
8.834682001,-1.142572761,-9.305686951,-5.317450047
8.844682001,-1.142572761,-9.305686951,-5.317450047
8.854682001,0.738185763,-11.04766178,0.769890666
8.864682001,1.326820135,-11.81815147,1.047458172
8.874682001,1.886740685,-12.52642632,1.047458172
8.884682001,2.322234392,-13.21077347,0.693320334
8.894682001,2.322234392,-13.21077347,0.693320334
8.904682001,3.523431301,-14.66561031,0.77946198
8.914682001,4.274777889,-15.10588932,1.473380566
8.924682001,5.136193752,-15.63230991,2.468794823
8.934682001,5.911468506,-16.2257309,3.36849618
8.944682001,6.796812534,-16.8909359,4.158127785
8.954682001,6.796812534,-16.8909359,4.158127785
8.964682001,6.796812534,-16.8909359,4.158127785
8.974682001,10.73061275,-21.16451645,5.483751297
8.984682001,11.07518005,-21.23151588,5.852245808
8.994682001,11.28096199,-21.37029839,6.091528416
9.004682001,11.6398859,-21.72443771,6.259026051
9.014682001,12.12802124,-22.26521492,6.330810547
9.024682001,13.51585865,-24.59103775,6.938587666
9.024682001,13.51585865,-24.59103775,6.938587666
9.044682001,14.62134266,-25.5625248,7.828717709
9.054682001,15.05205059,-25.4620266,8.364709854
9.064682001,15.49711609,-24.9738903,8.637491226
9.074682001,15.8943243,-24.14118767,8.575278282
9.084682001,16.38245964,-22.72463608,7.565506935
9.094682001,16.41117477,-22.33699989,6.814160824
9.104682001,16.31067467,-22.32264328,6.058028698
9.114682001,16.31067467,-22.32264328,6.058028698
9.124682001,15.48754501,-22.64328003,5.254040241
9.134682001,15.02333736,-22.34657097,5.340181828
9.144682001,14.88933849,-22.19342995,5.761318684
9.154682001,15.25783348,-21.92543411,6.70887661
9.164682001,15.5114727,-21.48994064,6.790232658
9.174682001,15.87518215,-21.05923271,6.507879257
9.184682001,15.96132374,-20.40359879,6.029314995
9.194682001,15.96132374,-19.53261185,5.632106304
9.204682001,15.83211136,-18.75733757,5.120042324
9.214682001,15.83211136,-18.75733757,5.120042324
9.224682001,17.11944962,-16.83829308,5.517251015
9.234682001,17.11944962,-16.83829308,5.517251015
9.244682001,17.11944962,-16.83829308,5.517251015
9.254682001,19.80419731,-14.33540058,4.986044407
9.264682001,20.17747688,-13.36870003,4.339982033
9.274682001,20.66561317,-12.77049446,4.205984116
9.284682001,22.19223404,-11.58843994,4.162913322
9.294682001,23.59921265,-11.26780224,3.713062525
9.304682001,25.54697037,-10.65045357,2.851646423
9.314682001,27.41337204,-10.15753174,1.439880967
9.324682001,28.12164879,-9.310472488,-0.101096757
9.334682001,28.27957535,-9.071190834,-1.66600275
9.344682001,32.00280762,-13.87119293,-4.255036831
9.354682001,34.26163101,-16.3262291,-4.982454777
9.364682001,34.26163101,-16.3262291,-4.982454777
9.374682001,37.55894089,-19.97289085,-5.23130846
9.384682001,36.19981766,-19.87239265,-6.695715904
9.394682001,33.73521042,-18.87697792,-8.179265976
9.404682001,33.73521042,-18.87697792,-8.179265976
9.414682001,24.93919373,-21.04008865,-7.662416458
9.424682001,22.24008942,-22.18864441,-0.680159807
9.434682001,23.0919342,-25.02653122,4.038486481
9.444682001,22.47937202,-28.05105972,6.450451851
9.454682001,21.81895256,-30.43909645,5.134399414
9.464682001,20.68475533,-31.29094124,3.196212769
9.474682001,21.9864502,-34.70789337,2.18644166
9.484682001,22.98665047,-37.28256989,3.277568817
9.494682001,22.98665047,-37.28256989,3.277568817
9.504682001,24.6472702,-40.76651764,8.431708336
9.514682001,25.99682236,-42.65684891,11.33181
9.524682001,26.92523766,-44.03990173,13.70549011
9.534682001,26.92523766,-44.03990173,13.70549011
9.544682001,28.12643433,-47.13142776,15.67717552
9.554682001,28.27000237,-47.75834656,16.57687759
9.564682001,28.08814812,-48.57669067,17.46700668
9.574682001,27.3703022,-49.10311508,18.0077858
9.584682001,26.12124825,-49.9358139,17.40958023
9.594682001,24.09213448,-50.60580444,16.90230179
9.604682001,19.8903389,-52.72106171,18.49592018
9.614682001,18.3589325,-54.01318741,20.15653992
9.624682001,17.76072693,-56.17629623,20.58246231
9.634682001,18.46421623,-60.02873993,19.87897301
9.644682001,18.91885185,-65.39344788,18.38585091
9.654682001,15.33440399,-68.76254272,17.81157303
9.664682001,15.33440399,-68.76254272,17.81157303
9.674682001,15.33440399,-68.76254272,17.81157303
9.684682001,-5.473581791,-57.6646347,21.71665955
9.694682001,-7.79461956,-53.57290649,18.03171349
9.704682001,-11.44606686,-49.65346146,15.27996731
9.714682001,-17.15055656,-46.20301056,12.36550903
9.724682001,-24.40080833,-42.41756821,7.934001446
9.734682001,-31.210783,-35.76073456,-2.048854351
9.744682001,-34.38366318,-32.53999329,-6.729215622
9.754682001,-38.49932098,-27.50071144,-9.820742607
9.764682001,-41.99762726,-21.49472618,-10.86401272
9.774682001,-41.71048737,-16.17787361,-11.00758266
9.784682001,-36.76213074,-13.88554955,-11.10808086
9.794682001,-36.76213074,-13.88554955,-11.10808086
9.804682001,-15.10708618,-12.00479126,-13.96511078
9.814682001,-12.13041401,-10.20060253,-16.46800423
9.824682001,-10.94836044,-8.477770805,-19.64088631
9.834682001,-10.30229759,-6.309873104,-22.01456642
9.844682001,-9.818947792,-5.395814896,-23.27797699
9.854682001,-9.192028046,-5.40060091,-22.67020035
9.864682001,-7.804191113,-6.190232277,-16.69771385
9.874682001,-7.205985546,-7.094718933,-13.58704472
9.884682001,-7.100701332,-7.621140003,-11.06501007
9.894682001,-7.100701332,-7.621140003,-11.06501007
9.904682001,-7.205985546,-7.477570534,-8.495118141
9.914682001,-7.134200573,-7.310073376,-8.499904633
9.924682001,-7.134200573,-7.310073376,-8.499904633
9.934682001,-7.134200573,-7.310073376,-8.499904633
9.944682001,-7.134200573,-7.310073376,-8.499904633
9.954682001,-0.271585375,-7.558926582,-8.767900467
9.964682001,1.058824062,-7.424928665,-8.63390255
9.974682001,1.810170293,-7.281359196,-8.346763611
9.984682001,1.810170293,-7.281359196,-8.346763611
9.994682001,1.853241086,-6.644868374,-6.145366669
10.004682,1.403390527,-6.630511761,-4.83409977
10.014682,0.867398202,-6.826723099,-3.336193085
10.024682,0.388833672,-7.467999458,-1.991426587
10.034682,-0.22372891,-8.195417404,-0.976869822
10.044682,-0.893719256,-8.606983185,-0.144167557
10.054682,-2.07098794,-8.525627136,1.291526079
10.064682,-1.913061738,-8.267202377,1.779661894
10.074682,-1.195214868,-8.228917122,1.698305845
10.084682,-1.195214868,-8.228917122,1.698305845
10.094682,1.44646132,-8.803194046,0.497108907
10.104682,2.681157827,-9.085547447,0.037686955
10.114682,2.681157827,-9.085547447,0.037686955
10.124682,2.681157827,-9.085547447,0.037686955
10.134682,4.360919476,-10.41117096,-0.014955142
10.144682,4.303491592,-11.00937653,0.339182615
10.154682,4.303491592,-11.00937653,0.339182615
10.164682,3.839283943,-11.89950657,0.975673437
10.174682,3.800998688,-12.4115715,1.305882931
10.184682,3.800998688,-12.4115715,1.305882931
10.194682,3.800998688,-12.4115715,1.305882931
10.204682,6.973881721,-16.19701576,3.043072224
10.214682,8.419146538,-17.09671783,3.631706476
10.224682,9.864411354,-18.0586319,3.957130432
10.234682,11.06082249,-18.86262131,4.004986763
10.244682,12.58744335,-19.87239265,4.062414646
10.254682,12.94636726,-19.97767639,4.249054909
10.264682,12.94636726,-19.97767639,4.249054909
10.274682,12.94636726,-19.97767639,4.249054909
10.284682,13.88913918,-20.72902298,6.110671043
10.294682,14.32941818,-21.04008865,6.68016243
10.304682,14.69791317,-21.02573204,7.182655334
10.314682,15.15254974,-21.15015984,7.311867714
10.324682,15.24347687,-20.88694954,7.086942673
10.334682,15.19562054,-20.51366806,6.632306099
10.344682,15.08555031,-20.45145607,5.919245243
10.354682,15.04247952,-21.0209465,5.158327579
10.364682,15.03769398,-21.98764801,4.555335999
10.374682,15.01855087,-23.49512482,3.870988846
10.384682,15.190835,-23.78705025,3.937987804
10.394682,15.190835,-23.78705025,3.937987804
10.404682,16.20060539,-23.22234344,4.737190723
10.414682,16.75574112,-22.57149506,4.938187599
10.424682,17.1433773,-21.67658043,5.009972572
10.434682,17.1433773,-21.67658043,5.009972572
10.444682,17.1433773,-21.67658043,5.009972572
10.454682,17.26301956,-17.71406555,2.741576433
10.464682,17.13380623,-16.71865273,2.497508526
10.474682,17.03330803,-15.76152229,2.545365095
10.484682,16.97109413,-14.77567959,2.660220623
10.494682,17.25823402,-14.0865469,2.918645382
10.504682,18.77528381,-13.2203455,3.105285645
10.514682,18.77528381,-13.2203455,3.105285645
10.524682,18.77528381,-13.2203455,3.105285645
10.534682,22.29751778,-10.66002464,1.612164259
10.544682,22.29751778,-10.66002464,1.612164259
10.554682,24.92005157,-8.26241684,-0.244666114
10.564682,24.92005157,-8.26241684,-0.244666114
10.574682,24.92005157,-8.26241684,-0.244666114
10.584682,30.4953289,-7.855636597,-0.249451756
10.594682,31.71566772,-9.683753014,0.568893611
10.604682,31.97887802,-11.2008028,1.157527924
10.614682,31.4237442,-12.43549919,0.82731843
10.624682,30.50968552,-13.83290768,0.01375873
10.634682,28.74378204,-17.24985886,-2.383849621
10.644682,27.88236618,-18.58026695,-3.259622574
10.654682,26.99223518,-19.3890419,-3.417548895
10.664682,26.99223518,-19.3890419,-3.417548895
10.674682,26.99223518,-19.3890419,-3.417548895
10.684682,25.46082878,-23.57648087,-1.091725349
10.694682,25.46082878,-23.57648087,-1.091725349
10.704682,25.46082878,-23.57648087,-1.091725349
10.714682,24.23570442,-31.36272621,-0.407378048
10.724682,23.90549469,-32.97549057,0.343968242
10.734682,23.83849525,-34.02833176,1.621735573
10.744682,24.16870499,-34.62653732,2.956930637
10.754682,24.8099823,-35.33481216,3.789632797
10.764682,24.8099823,-35.33481216,3.789632797
10.774682,24.8099823,-35.33481216,3.789632797
10.784682,29.73919678,-39.53660965,6.857231617
10.794682,31.27538872,-41.14458466,9.192625999
10.804682,32.9168663,-43.09712982,11.92523003
10.814682,34.83590698,-45.3415947,14.43290806
10.824682,34.83590698,-45.3415947,14.43290806
10.834682,37.04209137,-55.02295685,15.59103394
10.844682,33.73042297,-56.78886032,14.9210434
10.854682,29.51905632,-57.83213043,14.84447384
10.864682,25.9776783,-59.71767426,15.90688705
10.874682,22.55594254,-61.02894211,17.91207123
10.884682,20.26361847,-62.63691711,20.61596107
10.894682,18.7369976,-70.51409149,21.89372826
10.904682,18.7369976,-70.51409149,21.89372826
10.914682,9.663414001,-74.33782196,17.62493324
10.924682,9.663414001,-74.33782196,17.62493324
10.934682,-7.885547161,-63.94340134,13.35613823
10.944682,-14.80558968,-56.64050293,14.20319748
10.954682,-14.80558968,-56.64050293,14.20319748
10.964682,-14.80558968,-56.64050293,14.20319748
10.974682,-30.29672432,-37.30171204,-5.082953453
10.984682,-33.0053978,-31.61636543,-14.45324707
10.994682,-35.48914719,-25.94537544,-19.10489464
11.004682,-36.78127289,-21.36072731,-19.00918198
11.014682,-33.48875046,-14.79003716,-13.18026543
11.024682,-29.21995354,-12.76092339,-13.07498074
11.034682,-25.03251457,-11.81336498,-14.44846153
11.044682,-25.03251457,-11.81336498,-14.44846153
11.054682,-19.18924141,-11.22951698,-16.0755806
11.064682,-17.2558403,-11.04287624,-15.63530159
11.074682,-15.87278938,-10.24367332,-14.30967808
11.084682,-12.69990635,-8.812766075,-10.79701424
11.094682,-12.69990635,-8.812766075,-10.79701424
11.104682,-8.732605934,-7.960920811,-9.007183075
11.114682,-6.713063717,-7.712067604,-8.877969742
11.124682,-4.717449665,-7.745566845,-9.098110199
11.134682,-2.908475876,-7.869993687,-9.35174942
11.144682,-0.884147942,-7.831708431,-9.447462082
11.154682,-0.625723124,-7.549355507,-9.390034676
11.164682,-0.63050878,-7.353144169,-9.385248184
11.174682,-0.707079113,-7.228717327,-9.236893654
11.184682,-0.707079113,-7.228717327,-9.236893654
11.194682,-0.262014091,-7.290930748,-7.954340458
11.204682,-0.02751746,-7.573283672,-7.159923553
11.214682,-0.02751746,-7.573283672,-7.159923553
11.224682,0.034695927,-7.367500782,-5.982655048
11.234682,0.197407871,-7.601997375,-6.131010056
11.244682,0.273978204,-7.92742157,-6.341578007
11.254682,0.034695927,-8.061419487,-6.308078766
11.264682,-0.209371984,-8.056633949,-5.537590027
11.274682,-0.352941334,-7.956135273,-2.364706993
11.284682,-0.352941334,-7.956135273,-2.364706993
11.294682,-0.352941334,-7.956135273,-2.364706993
11.304682,-0.352941334,-7.956135273,-2.364706993
11.314682,0.16869399,-8.147561073,1.856232166
11.324682,0.69511497,-8.46819973,1.932802439
11.324682,0.16869399,-8.147561073,1.856232166
11.344682,0.69511497,-8.46819973,1.932802439
11.354682,1.982453585,-10.4350996,0.238684058
11.364682,2.255235434,-10.83230782,0.181256309
11.374682,2.829512835,-11.58843994,0.439681172
11.384682,3.815355778,-12.6125679,1.06660068
11.394682,5.150550842,-13.69412422,1.956730723
11.404682,5.150550842,-13.69412422,1.956730723
11.414682,5.150550842,-13.69412422,1.956730723
11.424682,9.56770134,-15.98166275,4.50269413
11.434682,9.56770134,-15.98166275,4.50269413
11.444682,10.28554821,-16.37408447,4.28255415
11.454682,10.4291172,-16.72343826,4.191627026
11.464682,10.67318535,-17.05364609,4.555335999
11.474682,10.67318535,-17.05364609,4.555335999
11.484682,12.05145168,-18.40798378,6.704091072
11.494682,12.73579884,-18.88176346,7.125227451
11.504682,13.30529022,-19.19761658,7.225726128
11.514682,13.56371498,-19.41775513,6.876374245
11.524682,13.56371498,-19.65703773,6.244668961
11.534682,13.56371498,-19.65703773,6.244668961
11.544682,12.64487171,-19.72403717,4.670191765
11.554682,12.5683012,-20.12124634,4.861617565
11.564682,12.5683012,-20.12124634,4.861617565
11.574682,13.07557964,-20.84387779,6.393023968
11.584682,13.68335629,-21.42772675,7.230511665
11.594682,13.68335629,-21.42772675,7.230511665
11.604682,13.68335629,-21.42772675,7.230511665
11.614682,13.68335629,-21.42772675,7.230511665
11.624682,13.68335629,-21.42772675,7.230511665
11.634682,14.8462677,-21.04008865,5.995815277
11.644682,14.98026657,-20.85823441,5.593821049
11.654682,14.99462318,-20.3796711,5.148756027
11.664682,14.99462318,-20.3796711,5.148756027
11.674682,16.38245964,-18.35534286,3.856631994
11.684682,17.80858231,-17.59921074,3.765704632
11.694682,19.7036972,-16.61336708,3.727419376
11.704682,22.04866409,-15.40738487,3.583850145
11.714682,24.62812614,-14.14875984,3.095714331
11.724682,28.48535728,-11.38265705,0.468395025
11.734682,28.48535728,-11.38265705,0.468395025
11.744682,28.48535728,-11.38265705,0.468395025
11.754682,28.48535728,-11.38265705,0.468395025
11.764682,33.45285797,-8.33898735,-0.455234498
11.774682,34.48176956,-8.58784008,0.966102123
11.784682,35.09911728,-9.176474571,1.875374794
11.794682,33.76871109,-11.24865913,3.043072224
11.804682,32.96472168,-12.56471157,2.559721947
11.814682,32.38087082,-13.78983688,1.607378602
11.824682,32.38087082,-13.78983688,1.607378602
11.834682,31.28017426,-16.04387665,-0.416949332
11.844682,30.70111084,-17.53699684,-0.72323066
11.854682,30.70111084,-17.53699684,-0.72323066
11.864682,30.70111084,-17.53699684,-0.72323066
11.874682,25.16890526,-23.92583275,4.832903385
11.884682,24.26441765,-25.438097,6.57966423
11.894682,23.47478676,-26.99821854,7.608577728
11.904682,22.53201485,-28.45305443,8.288139343
11.914682,21.46481514,-29.09911537,8.78584671
11.924682,21.3595314,-30.06581688,10.2837534
11.934682,22.25444794,-30.56830978,10.86760235
11.944682,23.74756813,-31.3866539,11.27916813
11.954682,25.56611443,-32.81277847,11.46102238
11.964682,27.51387024,-34.50689697,11.60937691
11.974682,29.18884659,-36.24887085,11.96830082
11.984682,29.18884659,-36.24887085,11.96830082
11.994682,31.31845856,-43.29333878,13.67199039
12.004682,31.31845856,-43.29333878,13.67199039
12.014682,29.59084129,-48.57669067,15.39482307
12.024682,27.32723045,-49.44768143,16.26102448
12.034682,25.61875534,-50.88337326,17.18943977
12.044682,21.54138565,-52.26163864,16.71087456
12.054682,20.1296196,-53.46283722,15.53839207
12.064682,19.69412613,-56.07579803,14.35155201
12.074682,19.64148521,-60.39245224,13.54756355
12.084682,18.56471443,-65.02973938,13.14078331
12.094682,18.56471443,-65.02973938,13.14078331
12.104682,11.44367409,-67.85805511,15.27518177
12.114682,11.44367409,-67.85805511,15.27518177
12.124682,11.44367409,-67.85805511,15.27518177
12.134682,-7.871190071,-55.71687698,14.05962753
12.144682,-13.72881985,-49.57689285,11.33659554
12.154682,-18.98824501,-44.34618378,7.957930088
12.164682,-22.89811707,-41.30729675,2.39222455
12.174682,-22.89811707,-41.30729675,2.39222455
12.184682,-22.89811707,-41.30729675,2.39222455
12.194682,-34.89094162,-22.64328003,-16.39143372
12.204682,-35.35993576,-17.90070534,-15.5922308
12.214682,-32.45026398,-15.15374565,-14.03689575
12.224682,-27.884758,-13.7036953,-13.30469227
12.234682,-23.2666111,-12.45942783,-13.79282761
12.244682,-23.2666111,-12.45942783,-13.79282761
12.254682,-23.2666111,-12.45942783,-13.79282761
12.264682,-10.03430176,-10.00917721,-18.16212273
12.274682,-8.196614265,-8.793622971,-17.63091469
12.284682,-6.071787357,-8.171489716,-16.45364761
12.294682,-4.128815651,-7.793423176,-15.22852135
12.304682,-2.803191662,-6.721438885,-13.04148197
12.314682,-3.018545866,-6.24766016,-12.11785221
12.324682,-3.229114056,-6.405586243,-11.72064304
12.334682,-3.702893019,-6.520441532,-11.59621716
12.344682,-3.702893019,-6.520441532,-11.59621716
12.354682,-3.702893019,-6.520441532,-11.59621716
12.364682,-5.889933109,-5.443671703,-11.17029476
12.374682,-5.889933109,-5.443671703,-11.17029476
12.384682,-5.889933109,-5.443671703,-11.17029476
12.394682,-1.544566989,-6.941578388,-9.954740524
12.404682,0.096909314,-7.544569969,-9.815957069
12.414682,1.623530149,-8.080561638,-9.748957634
12.424682,2.671586514,-8.343772888,-9.815957069
12.434682,2.671586514,-8.343772888,-9.815957069
12.444682,3.561716557,-6.979863644,-9.514460564
12.454682,4.054637909,-6.850651264,-9.078967094
12.464682,4.691128731,-7.147361279,-8.758329391
12.474682,5.217549801,-7.573283672,-8.466404915
12.484682,5.413761139,-8.013563156,-8.222336769
12.494682,5.117051125,-8.099704742,-7.77248621
12.504682,3.513859987,-7.72163868,-6.408577442
12.514682,2.269592285,-7.836493969,-4.853242397
12.524682,2.082952023,-8.315058708,-2.790629387
12.534682,2.236092806,-8.932407379,-1.163509965
12.544682,1.81495595,-9.310472488,0.58803618
12.554682,1.724028707,-9.439684868,1.789233088
12.564682,1.724028707,-9.439684868,1.789233088
12.574682,1.853241086,-9.578469276,3.153141975
12.584682,2.23130703,-9.865608215,2.909074068
12.594682,2.690729141,-10.15753174,2.578864574
12.604682,3.255435228,-10.47338486,2.267797709
12.614682,3.824927092,-10.91366386,1.908874273
12.624682,4.403990269,-12.0287199,1.602592945
12.634682,4.557130814,-12.52642632,2.033301115
12.644682,4.710271358,-13.14856052,2.813361168
12.654682,5.021338463,-13.9238348,3.713062525
12.664682,5.456831932,-14.82832146,4.641477585
12.674682,6.074180126,-15.66102409,5.531607628
12.684682,6.983452797,-16.33101463,6.278168201
12.694682,6.983452797,-16.33101463,6.278168201
12.704682,6.983452797,-16.33101463,6.278168201
12.714682,10.41476059,-18.95354843,6.326025009
12.714682,6.983452797,-16.33101463,6.278168201
12.734682,11.15653515,-19.92024803,5.976672649
12.744682,11.80738354,-20.77209282,6.019743443
12.754682,11.80738354,-20.77209282,6.019743443
12.764682,13.91306686,-22.05943108,6.646663189
12.774682,14.23370552,-21.86800575,6.723233223
12.784682,14.23370552,-21.55215263,6.637091637
12.794682,14.09492207,-21.37029839,6.536593437
12.804682,13.86521053,-21.16930199,6.38823843
12.814682,13.63071442,-20.93480492,6.340381622
12.824682,13.63071442,-20.93480492,6.340381622
12.834682,13.63071442,-20.93480492,6.340381622
12.844682,14.09492207,-18.85783577,5.828317642
12.854682,14.09492207,-18.85783577,5.828317642
12.864682,14.38206005,-17.54178238,4.818546772
12.874682,14.32463264,-16.98186302,4.16769886
12.884682,14.32463264,-16.98186302,4.16769886
12.894682,14.06620789,-16.70907974,2.779861689
12.904682,14.32941818,-16.69950867,2.894717216
12.914682,14.96112347,-17.05843353,3.267997503
12.924682,16.01875114,-17.66142464,3.689134359
12.934682,17.38265991,-17.80977821,3.818346739
12.944682,18.937994,-17.36949921,3.631706476
12.954682,18.937994,-17.36949921,3.631706476
12.964682,18.937994,-17.36949921,3.631706476
12.974682,25.38904381,-13.51226902,-1.311864972
12.984682,26.62374115,-12.26800156,-1.800000787
12.994682,27.99243546,-11.94736385,-1.843071699
13.004682,28.74378204,-11.40180016,-1.292722464
13.014682,28.74378204,-11.40180016,-1.292722464
13.024682,28.74378204,-11.40180016,-1.292722464
13.034682,31.58645439,-10.34417248,2.119442701
13.034682,31.58645439,-10.34417248,2.119442701
13.054682,32.17987442,-12.53121185,0.535394073
13.064682,31.54817009,-13.97169113,-0.278165638
13.074682,30.79203796,-15.78545094,-0.838086128
13.084682,27.72443962,-18.36969948,-1.383649707
13.094682,25.70489693,-18.7860508,-0.62751776
13.104682,24.3457737,-19.74796486,0.568893611
13.114682,23.18764877,-21.03051758,1.94715941
13.124682,22.24966049,-21.99721909,3.64127779
13.134682,21.40260124,-23.10748863,5.483751297
13.144682,20.06262207,-25.31845665,9.010771751
13.154682,19.41655922,-25.9405899,10.30768204
13.164682,19.41655922,-25.9405899,10.30768204
13.174682,19.35434532,-27.71606445,11.50887871
13.184682,19.63191414,-28.75933456,11.53759289
13.194682,20.07219315,-29.69732094,11.44187927
13.204682,20.07219315,-29.69732094,11.44187927
13.214682,21.70888329,-33.07120132,11.6524477
13.224682,22.4889431,-33.94218826,11.88215923
13.234682,23.89113808,-35.03331757,12.07837009
13.244682,25.39383125,-36.35894012,12.0352993
13.254682,25.39383125,-36.35894012,12.0352993
13.264682,26.88695145,-37.61277771,11.26481056
13.274682,26.96352196,-39.57967758,10.08275604
13.284682,26.49452782,-40.99623108,9.647262573
13.294682,25.34597397,-42.33621216,9.250054359
13.304682,23.20200539,-43.52305222,9.12084198
13.314682,20.87618065,-44.49453735,9.441479683
13.324682,19.28256035,-46.09772873,10.01575756
13.334682,19.28256035,-46.09772873,10.01575756
13.344682,16.42553139,-53.70211792,10.1210413
13.354682,16.42553139,-53.70211792,10.1210413
13.364682,11.06560802,-55.55416489,9.111269951
13.374682,7.122236729,-54.97031403,10.70010471
13.384682,2.054238319,-52.31428146,13.76291752
13.394682,-3.425325632,-48.09334183,17.03629875
13.404682,-12.36012554,-38.78526306,18.62991905
13.414682,-14.75294781,-34.84189224,16.2897377
13.424682,-15.3990097,-32.52563858,12.04008579
13.434682,-15.76271915,-32.34856796,5.880959988
13.444682,-17.89711761,-31.57329559,-0.402592421
13.454682,-17.89711761,-31.57329559,-0.402592421
13.464682,-17.89711761,-31.57329559,-0.402592421
13.474682,-17.89711761,-31.57329559,-0.402592421
13.484682,-28.61696243,-14.23968792,-8.045268059
13.484682,-28.61696243,-14.23968792,-8.045268059
13.504682,-22.16112709,-13.45962715,-11.12243748
13.514682,-18.79681778,-13.01934814,-14.00818157
13.524682,-16.09771347,-12.00000572,-17.31984901
13.534682,-11.47478104,-10.32502937,-23.12005043
13.544682,-10.18265629,-8.908478737,-24.5461731
13.554682,-9.412167549,-7.123433113,-24.40260315
13.564682,-8.550751686,-6.108876228,-22.86641121
13.574682,-7.459624767,-5.788238049,-20.64108658
13.584682,-6.43549633,-5.864808083,-18.29611969
13.594682,-6.43549633,-5.864808083,-18.29611969
13.604682,-6.43549633,-5.864808083,-18.29611969
13.614682,-5.344369411,-6.975078106,-13.55354595
13.624682,-5.042873859,-6.999006271,-12.42891884
13.634682,-5.100301266,-7.41535759,-11.63450146
13.644682,-4.344169617,-7.520641804,-10.08873844
13.654682,-4.344169617,-7.520641804,-10.08873844
13.664682,1.240678549,-9.588040352,-7.284350395
13.674682,2.786442041,-9.927821159,-6.710072994
13.684682,4.035495281,-9.956535339,-5.74337244
13.694682,4.939982414,-9.903892517,-4.709673405
13.704682,5.389832973,-9.688538551,-3.805186272
13.714682,5.590830326,-9.343972206,-3.029911757
13.724682,5.590830326,-9.343972206,-3.029911757
13.734682,5.590830326,-9.343972206,-3.029911757
13.744682,4.269991875,-7.822137356,-0.881156921
13.754682,3.753142357,-7.664210796,-0.38823548
13.764682,3.298506021,-7.688138962,0.1477568
13.774682,2.877369165,-7.965706348,0.602393091
13.784682,2.355733871,-8.736195564,1.348953724
13.794682,2.260020971,-9.013762474,2.349153519
13.804682,2.13559413,-9.090332985,3.373281717
13.814682,2.13559413,-9.042476654,3.861417532
13.824682,2.13559413,-9.042476654,3.861417532
13.834682,2.164308071,-9.473184586,3.090928555
13.844682,2.279163599,-9.693324089,2.545365095
13.854682,2.279163599,-9.693324089,2.545365095
13.864682,2.279163599,-9.693324089,2.545365095
13.874682,3.800998688,-11.53579807,1.214955688
13.884682,4.432703972,-12.33978653,1.396810174
13.894682,5.045266628,-13.19641685,1.928016901
13.904682,5.045266628,-13.19641685,1.928016901
13.914682,5.045266628,-13.19641685,1.928016901
13.924682,5.045266628,-13.19641685,1.928016901
13.934682,5.045266628,-13.19641685,1.928016901
13.944682,9.012566566,-18.40319824,6.555736065
13.954682,10.57747269,-19.79582214,7.225726128
13.964682,12.09930801,-21.03530312,7.345367432
13.974682,13.20000648,-21.45643997,7.120441914
13.984682,13.95135212,-20.16431618,5.890531063
13.994682,14.10927868,-19.551754,5.215754986
14.004682,14.24806213,-19.1258316,4.703691006
14.014682,14.26720524,-18.84347916,4.459623337
14.024682,14.02313709,-18.8243351,4.215555191
14.034682,13.70249844,-18.9870472,4.263411522
14.044682,12.80758286,-19.92981911,4.813760757
14.054682,12.80758286,-19.92981911,4.813760757
14.064682,12.80758286,-19.92981911,4.813760757
14.074682,13.00379467,-20.70030785,6.000600815
14.084682,13.00379467,-20.70030785,6.000600815
14.094682,14.61655712,-20.73859406,6.005386829
14.104682,15.62632847,-20.84387779,5.531607628
14.114682,15.62632847,-20.84387779,5.531607628
14.124682,15.62632847,-20.84387779,5.531607628
14.124682,17.75115395,-20.74337959,3.693919897
14.144682,18.23929024,-19.69532394,3.574278831
14.154682,18.77049637,-18.99661827,4.177269936
14.164682,19.53619957,-18.20220184,4.828117847
14.174682,19.53619957,-18.20220184,4.828117847
14.184682,19.53619957,-18.20220184,4.828117847
14.194682,19.53619957,-18.20220184,4.828117847
14.204682,26.26481819,-11.62193966,5.100899696
14.214682,27.50429916,-10.48774147,4.220340729
14.224682,28.67199707,-9.49232769,2.923431158
14.234682,30.74896812,-9.521040916,-0.842871785
14.244682,31.45245743,-9.372686386,-2.278565407
14.254682,31.90230751,-8.994620323,-2.661417007
14.264682,32.26601791,-8.946763992,-1.847857237
14.274682,32.66801071,-9.473184586,-0.23509483
14.284682,33.16571808,-10.3346014,1.593021631
14.294682,33.43371582,-11.526227,2.818146944
14.304682,33.43371582,-11.526227,2.818146944
14.314682,33.43371582,-11.526227,2.818146944
14.324682,31.29453087,-18.74297905,0.037686955
14.334682,29.82533836,-20.46581268,-1.785643935
14.344682,27.59044075,-20.46581268,-3.522833109
14.354682,25.19283295,-20.23131561,-3.589832067
14.364682,22.74736786,-22.58585358,1.090528965
14.374682,22.74736786,-22.58585358,1.090528965
14.384682,22.74736786,-22.58585358,1.090528965
14.394682,20.07219315,-25.41895485,8.101499557
14.404682,19.48355865,-26.60100937,8.670990944
14.414682,18.74656868,-27.1561451,8.584849358
14.424682,18.12922096,-27.7591362,8.34556675
14.434682,18.12922096,-27.7591362,8.34556675
14.444682,18.54557228,-29.5298233,9.608977318
14.454682,20.14876366,-30.35295486,10.5038929
14.464682,22.24487495,-31.47758102,11.37966633
14.474682,24.59462738,-32.52085114,11.48495007
14.484682,27.22673225,-33.87040329,11.33659554
14.494682,27.22673225,-33.87040329,11.33659554
14.504682,27.22673225,-33.87040329,11.33659554
14.514682,30.92603683,-41.26422501,11.10209846
14.524682,29.77269554,-44.18825531,12.51865005
14.534682,27.3703022,-46.27958298,14.59083462
14.544682,25.33161736,-49.41418076,17.03151321
14.554682,23.53700066,-53.91268539,20.12782669
14.564682,16.91366768,-58.79404449,26.43052101
14.574682,12.93679523,-59.71767426,27.31586456
14.584682,8.519644737,-58.79883194,26.15773964
14.594682,8.519644737,-58.79883194,26.15773964
14.604682,-0.285942316,-51.92185974,21.60180473
14.614682,-3.358326674,-48.8303299,19.01755524
14.624682,-3.358326674,-48.8303299,19.01755524
14.634682,-11.53699398,-40.0582428,10.04447079
14.644682,-15.98285866,-39.7806778,6.881159782
14.654682,-22.29033852,-38.0626297,1.861017823
14.664682,-29.11945534,-33.31526947,-4.231108665
14.674682,-34.47937775,-26.77329254,-9.591031075
14.684682,-36.79084396,-21.38465691,-13.37647724
14.694682,-36.79084396,-21.38465691,-13.37647724
14.704682,-36.79084396,-21.38465691,-13.37647724
14.714682,-19.20838356,-13.97169113,-15.23809242
14.724682,-15.80578995,-12.74656582,-17.95633888
14.734682,-13.37946796,-11.63151073,-20.51187325
14.744682,-11.5704937,-11.23430252,-22.04806519
14.754682,-9.814162254,-10.9184494,-19.91845322
14.764682,-9.48873806,-10.39202881,-17.07099533
14.774682,-9.254241943,-9.951749802,-14.50588894
14.784682,-9.000602722,-9.501898766,-12.69691563
14.794682,-8.837890625,-9.147761345,-11.5579319
14.804682,-8.64167881,-8.903693199,-11.19900799
14.814682,-7.349554539,-8.630910873,-10.26102161
14.824682,-6.301498413,-8.693124771,-9.859027863
14.834682,-4.856233597,-9.109476089,-9.576674461
14.844682,-3.339184046,-9.611968994,-9.342177391
14.854682,-1.822134495,-9.688538551,-9.050253868
14.864682,-0.252442777,-9.521040916,-8.566903114
14.874682,1.326820135,-9.449256897,-8.083553314
14.884682,1.326820135,-9.449256897,-8.083553314
14.894682,4.523631096,-9.229117393,-7.078567505
14.904682,4.671986103,-8.908478737,-6.781857491
14.914682,4.552345276,-8.71705246,-6.236293793
14.924682,4.155136585,-8.673981667,-5.518447399
14.934682,3.667000771,-8.865407944,-4.690530777
14.944682,3.667000771,-8.865407944,-4.690530777
14.954682,3.667000771,-8.865407944,-4.690530777
14.964682,3.667000771,-8.865407944,-4.690530777
14.974682,2.748156786,-10.63609695,2.033301115
14.984682,2.910868645,-10.8179512,3.196212769
14.994682,3.131008387,-10.90887833,4.253840446
15.004682,3.351148129,-11.04766178,5.024329185
15.014682,3.614358664,-11.6841526,5.220541
15.014682,3.614358664,-11.6841526,5.220541
15.034682,3.614358664,-11.6841526,5.220541
15.044682,4.691128731,-12.74178028,4.756333351
15.054682,5.399404526,-13.09591866,4.48833704
15.064682,6.107679844,-13.41655636,4.091128349
15.074682,6.107679844,-13.41655636,4.091128349
15.084682,6.107679844,-13.41655636,4.091128349
15.094682,8.505288124,-16.14916039,4.330410957
15.104682,8.849854469,-16.59422493,4.942973614
15.114682,9.022137642,-16.89572144,5.603392601
15.124682,9.060422897,-17.24028778,6.077171326
15.134682,9.113064766,-17.49871254,6.517450809
15.144682,9.113064766,-17.49871254,6.517450809
15.144682,9.46720314,-17.8959198,7.067800045
15.164682,10.32383347,-18.5228405,6.996015072
15.174682,10.92203903,-18.71905136,6.929016113
15.184682,11.44367409,-18.89133453,6.637091637
15.194682,11.79781246,-19.34597015,6.048457623
15.204682,12.46301651,-20.75773621,5.268397331
15.214682,12.79801178,-21.61915207,5.306682587
15.224682,13.42014599,-23.0787735,5.675177097
15.234682,14.30549049,-24.57668114,6.187241077
15.244682,15.27219009,-25.37588501,7.225726128
15.254682,16.22453308,-25.37109756,8.714061737
15.264682,16.22453308,-25.37109756,8.714061737
15.274682,16.22453308,-25.37109756,8.714061737
15.284682,20.57947159,-21.9493618,9.723833084
15.294682,21.74238205,-21.35115623,8.781061172
15.304682,22.80479622,-20.13560295,7.642077446
15.314682,23.21157646,-18.71905136,6.522236347
15.324682,23.37428856,-17.66621017,5.431109428
15.334682,24.70948219,-16.68993759,6.570092678
15.344682,26.25524712,-15.95773411,7.847859859
15.354682,28.67199707,-14.68475246,8.302495956
15.364682,28.67199707,-14.68475246,8.302495956
15.374682,28.67199707,-14.68475246,8.302495956
15.374682,35.23311615,-12.27757263,5.268397331
15.394682,38.49214172,-9.69811058,-3.431905985
15.404682,38.49214172,-9.69811058,-3.431905985
15.414682,38.49214172,-9.69811058,-3.431905985
15.424682,38.49214172,-9.69811058,-3.431905985
15.434682,34.06541824,-9.846465111,1.06660068
15.444682,33.77828217,-11.32522964,3.03350091
15.454682,33.4576416,-13.02413368,4.411766529
15.464682,33.4576416,-13.02413368,4.411766529
15.474682,30.14118958,-18.08734703,3.851846218
15.484682,28.27000237,-19.4273262,3.35413909
15.494682,26.36531639,-20.91566277,3.358924866
15.504682,24.51805687,-22.27000046,4.301696777
15.514682,22.66601181,-23.33720016,6.268597126
15.524682,19.54577255,-24.21297264,10.74796104
15.534682,18.66521263,-24.95474815,11.60459137
15.544682,17.88036728,-25.38545609,10.95852947
15.554682,17.28694725,-25.42374039,9.403194427
15.564682,17.08116531,-25.56731033,7.661220074
15.574682,17.2055912,-25.76352119,6.527021885
15.584682,17.50708771,-25.83530617,6.37388134
15.594682,17.50708771,-25.83530617,6.37388134
15.604682,17.50708771,-25.83530617,6.37388134
15.614682,19.78983879,-27.96491814,10.34596729
15.624682,20.48854446,-28.85504913,10.73360443
15.634682,21.44567299,-30.08017349,10.91545868
15.644682,22.1252346,-31.20958519,11.14516926
15.654682,23.13979149,-33.79861832,11.20259762
15.664682,23.44607353,-35.56930923,11.03988552
15.674682,22.88136673,-36.74179077,11.11645603
15.684682,22.88136673,-36.74179077,11.11645603
15.694682,21.2973175,-39.50789642,11.78644657
15.704682,20.60818481,-41.56093597,12.95414352
15.714682,19.97648048,-44.00640106,15.16989708
15.724682,19.97648048,-44.00640106,15.16989708
15.734682,19.97648048,-44.00640106,15.16989708
15.744682,19.97648048,-44.00640106,15.16989708
15.754682,8.596215248,-56.02315521,23.48734856
15.764682,3.676572084,-55.18566895,22.28615189
15.774682,-2.425125837,-51.74478912,19.95554352
15.784682,-14.11167145,-42.48456573,14.28933907
15.794682,-19.49552155,-39.50789642,10.13061333
15.804682,-19.49552155,-39.50789642,10.13061333
15.814682,-19.49552155,-39.50789642,10.13061333
15.824682,-35.71407318,-26.04587364,-9.112466812
15.834682,-38.24568176,-18.6233387,-11.5387888
15.844682,-38.24568176,-18.6233387,-11.5387888
15.854682,-30.52643394,-13.1772747,-6.973283291
15.864682,-30.52643394,-13.1772747,-6.973283291
15.874682,-24.10888481,-10.91366386,-7.112067223
15.884682,-20.12722778,-10.48774147,-7.159923553
15.894682,-16.11207199,-10.66481018,-6.867999077
15.904682,-12.74297714,-10.91366386,-6.705287457
15.914682,-9.148957253,-10.12881851,-6.647859573
15.924682,-8.397610664,-9.296115875,-6.322435856
15.934682,-7.718049526,-8.640482903,-5.638088226
15.944682,-7.210771084,-8.391629219,-5.193023205
15.954682,-6.880561352,-8.300702095,-5.154737949
15.964682,-6.531209469,-8.33898735,-5.121238708
15.974682,-6.531209469,-8.33898735,-5.121238708
15.984682,-6.531209469,-8.33898735,-5.121238708
15.994682,-4.856233597,-9.310472488,-3.838685751
16.004682,-4.320241451,-9.415757179,-3.03948307
16.014682,-4.320241451,-9.415757179,-3.03948307
16.024682,-3.458825111,-9.305686951,-1.039083242
16.034682,-3.061616659,-8.932407379,-0.014955142
16.044682,-3.061616659,-8.932407379,-0.014955142
16.054682,-1.104287624,-8.472985268,0.391824722
16.064682,-1.104287624,-8.472985268,0.391824722
16.074682,0.130408838,-8.563912392,0.028115666
16.084682,0.355334163,-8.544769287,-0.34037903
16.094682,0.288335115,-8.549555779,-0.799800992
16.104682,0.307477713,-9.253045082,-1.287936807
16.114682,0.541974306,-10.15753174,-1.278365493
16.124682,0.541974306,-10.15753174,-1.278365493
16.134682,1.231107235,-12.35892868,-0.125024989
16.144682,1.618744493,-13.51226902,0.961316526
16.154682,2.34137702,-14.5268259,2.416152716
16.164682,3.059223652,-15.37867069,4.038486481
16.174682,3.059223652,-15.37867069,4.038486481
16.184682,4.671986103,-16.3645134,5.71824789
16.194682,5.504688263,-16.70907974,5.120042324
16.204682,6.3373909,-17.23550224,4.306482315
16.214682,7.122236729,-18.01077652,3.579064369
16.224682,7.897511005,-18.96311951,3.047857761
16.234682,7.897511005,-18.96311951,3.047857761
16.244682,7.897511005,-18.96311951,3.047857761
16.254682,7.897511005,-18.96311951,3.047857761
16.264682,13.00379467,-22.60978127,7.173084259
16.274682,13.54935837,-22.6767807,8.077570915
16.284682,14.1427784,-23.37548447,8.618349075
16.294682,14.72662735,-24.34218407,8.690134048
16.304682,14.72662735,-24.34218407,8.690134048
16.314682,14.72662735,-24.34218407,8.690134048
16.324682,15.80818272,-26.9695034,6.125027657
16.334682,16.18624878,-26.83550644,6.18245554
16.344682,16.67438507,-26.37129784,6.426523209
16.354682,17.31087494,-25.89273453,6.570092678
16.364682,18.8614254,-25.06960297,6.689733982
16.374682,19.38784599,-24.45225525,6.431309223
16.384682,19.58884239,-23.91626167,6.000600815
16.394682,19.51227188,-23.55255318,5.488536835
16.404682,18.97149467,-23.26541519,4.885545731
16.414682,17.94736671,-22.68635178,4.708476543
16.424682,16.41596031,-20.73859406,6.172883987
16.434682,16.56431389,-20.06381798,7.09172821
16.444682,17.17687798,-19.17368698,7.54157877
16.454682,17.17687798,-19.17368698,7.54157877
16.464682,17.17687798,-19.17368698,7.54157877
16.474682,21.53660011,-15.46959877,5.115256786
16.484682,23.24028969,-14.04826164,3.689134359
16.494682,23.24028969,-14.04826164,3.689134359
16.504682,23.24028969,-14.04826164,3.689134359
16.514682,23.24028969,-14.04826164,3.689134359
16.524682,28.13121986,-11.08594704,-0.828514814
16.534682,28.38485909,-10.9615202,-0.474377096
16.544682,28.01636314,-10.10967541,0.73160553
16.554682,28.01636314,-10.10967541,0.73160553
16.564682,28.01636314,-10.10967541,0.73160553
16.574682,30.88296509,-11.7463665,5.775675774
16.584682,31.78266716,-13.10070419,4.339982033
16.594682,31.77788162,-14.67039585,1.683948994
16.604682,30.85425186,-15.63709641,-1.177866936
16.614682,29.87797928,-16.67558098,-3.695116282
16.624682,29.87797928,-16.67558098,-3.695116282
16.634682,29.11706161,-22.15993118,-6.020939827
16.644682,27.37987328,-22.8394928,-4.752744198
16.654682,25.37468719,-22.94956207,-2.527418852
16.664682,23.70449829,-24.00240326,-0.230309173
16.674682,22.16830444,-25.05524635,2.047657967
16.684682,19.45005798,-25.65823746,5.756533146
16.694682,18.57907104,-25.52902412,7.034300327
16.704682,18.51685715,-25.75873566,7.584649563
16.714682,18.51685715,-25.75873566,7.584649563
16.724682,19.69412613,-26.84029198,6.077171326
16.734682,20.49811554,-27.74956512,4.875974178
16.744682,21.24467659,-28.89333344,4.210769653
16.754682,21.24467659,-28.89333344,4.210769653
16.764682,23.93420792,-32.92763138,6.06760025
16.774682,25.40818787,-35.01417542,7.479365349
16.784682,26.43231583,-36.90929031,8.761918068
16.794682,26.89652252,-38.56033707,9.70468998
16.804682,26.93959427,-40.83351898,10.01097202
16.814682,26.93959427,-40.83351898,10.01097202
16.824682,26.93959427,-40.83351898,10.01097202
16.834682,26.93959427,-40.83351898,10.01097202
16.844682,18.66042709,-47.36113739,9.187840462
16.854682,17.19602013,-47.68656158,10.20239735
16.864682,16.34417534,-48.265625,11.4514513
16.874682,16.34417534,-48.265625,11.4514513
16.884682,15.87518215,-51.96492767,14.89711571
16.894682,16.08096504,-53.85047531,15.83031654
16.904682,15.28176212,-54.65924835,16.44766426
16.914682,14.19542027,-54.58267593,16.29930878
16.924682,12.9511528,-54.33860779,15.20818233
16.934682,11.50110245,-54.56832123,13.58584881
16.944682,6.595815659,-55.38188171,8.862417221
16.954682,2.886940479,-55.43930817,5.517251015
16.964682,2.886940479,-55.43930817,5.517251015
16.974682,-13.53260803,-47.78227615,-4.006183147
16.984682,-23.71167564,-40.46023941,-5.824728489
16.994682,-31.24428177,-33.80818939,-6.111867428
17.004682,-31.24428177,-33.80818939,-6.111867428
17.014682,-31.24428177,-33.80818939,-6.111867428
17.024682,-36.15913773,-20.56152534,-6.834499836
17.034682,-33.42174911,-18.97747612,-8.696115494
17.044682,-30.91885757,-16.62293816,-10.04088211
17.054682,-27.57847786,-15.09631824,-11.39043427
17.064682,-23.77867508,-14.37847137,-12.36670589
17.074682,-18.1842556,-13.26820183,-13.36211967
17.084682,-16.71027756,-12.23450184,-13.92203999
17.094682,-15.63350677,-11.22473145,-14.19960785
17.104682,-15.63350677,-11.22473145,-14.19960785
17.114682,-15.63350677,-11.22473145,-14.19960785
17.124682,-12.65205002,-10.34895802,-14.00339603
17.134682,-12.65205002,-10.34895802,-14.00339603
17.144682,-12.65205002,-10.34895802,-14.00339603
17.154682,-12.65205002,-10.34895802,-14.00339603
17.164682,-4.16710043,-10.51645565,-7.456633568
17.174682,-2.568695068,-10.57388306,-5.992226124
17.184682,-0.932004392,-10.63131142,-4.819743156
17.194682,0.723828852,-10.66002464,-3.824328899
17.204682,3.638286829,-10.53081226,-2.723630428
17.214682,3.638286829,-10.53081226,-2.723630428
17.224682,3.638286829,-10.53081226,-2.723630428
17.234682,3.638286829,-10.53081226,-2.723630428
17.244682,6.189035892,-9.812965393,-1.79521513
17.254682,6.413960934,-9.765109062,-0.933799028
17.264682,6.413960934,-9.765109062,-0.933799028
17.274682,6.093322754,-9.683753014,1.013958573
17.284682,6.251249313,-9.994820595,1.305882931
17.294682,6.246463299,-10.49731255,1.124028444
17.304682,5.863611698,-10.87059307,0.712462962
17.314682,5.313262463,-10.9615202,0.674177766
17.324682,4.738985062,-10.85145092,1.033101201
17.334682,4.432703972,-10.77009487,2.497508526
17.344682,4.432703972,-10.77009487,2.497508526
17.354682,5.294120312,-11.18644619,4.210769653
17.364682,5.944967747,-11.40658569,4.799404144
17.374682,6.591030121,-11.71765232,5.134399414
17.384682,7.103094101,-12.16271782,5.306682587
17.394682,7.103094101,-12.16271782,5.306682587
17.404682,8.285148621,-14.31147194,5.919245243
17.414682,8.371290207,-14.79003716,6.163312912
17.424682,8.371290207,-14.79003716,6.163312912
17.434682,8.371290207,-14.79003716,6.163312912
17.444682,9.098708153,-15.42652798,7.862216949
17.454682,9.098708153,-15.42652798,7.862216949
17.464682,9.098708153,-15.42652798,7.862216949
17.474682,11.32403278,-17.14936066,6.440880299
17.484682,11.40538883,-17.69970894,5.598606586
17.494682,11.33360481,-18.10170364,5.072185993
17.504682,11.13260746,-18.31227112,5.091328144
17.514682,11.06560802,-18.75733757,5.507679462
17.524682,11.64945698,-19.82453537,6.450451851
17.534682,12.05145168,-20.2552433,6.656234264
17.544682,12.51565838,-20.69073677,6.661019802
17.554682,13.09950733,-21.15015984,6.450451851
17.564682,13.09950733,-21.15015984,6.450451851
17.574682,14.6261282,-22.52842522,5.359324455
17.584682,14.6261282,-22.52842522,5.359324455
17.594682,14.6261282,-22.52842522,5.359324455
17.604682,17.71286964,-23.02134705,5.852245808
17.614682,18.99063683,-22.86820602,5.823532104
17.624682,20.41675949,-22.54278183,5.416752338
17.634682,22.03909302,-22.02114677,4.622334957
17.644682,23.83370972,-21.35115623,3.502494097
17.654682,27.72922516,-20.89652061,1.344168067
17.664682,29.43770027,-20.62373924,0.865603566
17.674682,30.64846802,-19.73360825,1.028315544
17.684682,31.59124184,-18.32662773,2.148156643
17.694682,33.13221741,-16.61815262,4.349553585
17.704682,34.50091171,-15.79980755,7.991429329
17.714682,34.50091171,-15.79980755,7.991429329
17.724682,38.45864105,-13.39741421,13.42792225
17.734682,38.66920853,-13.90947819,10.96331501
17.744682,37.40101624,-14.09133244,7.828717709
17.754682,35.5154686,-13.85683632,5.612963676
17.764682,33.91227722,-14.66561031,4.545764923
17.774682,32.88336563,-16.19223022,4.938187599
17.784682,30.69153976,-19.03011894,7.474579811
17.794682,29.21756172,-20.27438545,8.522636414
17.804682,29.21756172,-20.27438545,8.522636414
17.814682,25.65225601,-22.40399933,9.240483284
17.814682,25.65225601,-22.40399933,9.240483284
17.834682,22.22094727,-24.14597321,8.962915421
17.844682,22.22094727,-24.14597321,8.962915421
17.854682,20.18226242,-26.27079964,7.292725086
17.864682,20.08654976,-26.78764915,7.168298244
17.874682,20.28754616,-27.52942467,7.326224804
17.884682,20.70389748,-28.40041161,7.972286701
17.894682,21.59881401,-29.39582634,8.94377327
17.904682,22.57508469,-30.39602661,9.843474388
17.914682,24.35534477,-32.56871033,10.523036
17.924682,24.35534477,-32.56871033,10.523036
17.934682,26.22653198,-36.55993652,10.80538845
17.944682,27.27458954,-40.58466339,11.14995575
17.954682,28.02114868,-45.13102722,12.08794212
17.964682,27.8345089,-48.76333237,13.96391487
17.974682,27.8345089,-48.76333237,13.96391487
17.984682,27.8345089,-48.76333237,13.96391487
17.994682,20.30190277,-56.04229736,18.86441612
18.004682,20.46940041,-60.07659912,19.44826508
18.014682,21.14896202,-65.07281494,20.73560333
18.024682,20.54118538,-68.83911133,22.4010067
18.034682,20.54118538,-68.83911133,22.4010067
18.044682,20.54118538,-68.83911133,22.4010067
18.054682,20.54118538,-68.83911133,22.4010067
18.064682,1.652244091,-68.70511627,21.62094688
18.074682,-3.779463291,-63.94818497,18.2470665
18.084682,-9.536594391,-57.79862976,14.04527092
18.094682,-13.75274849,-51.6921463,9.245268822
18.104682,-13.75274849,-51.6921463,9.245268822
18.114682,-13.75274849,-51.6921463,9.245268822
18.124682,-27.57369232,-35.56930923,-8.155337334
18.134682,-29.58844757,-31.09951591,-12.33799171
18.144682,-30.87578773,-27.09871674,-15.31466293
18.154682,-31.06242752,-24.24647141,-16.19522095
18.164682,-25.9513588,-22.32264328,-18.76511383
18.174682,-23.19004059,-21.0448761,-21.38286209
18.184682,-23.19004059,-21.0448761,-21.38286209
18.194682,-23.19004059,-21.0448761,-21.38286209
18.204682,-14.40359592,-16.03909111,-24.92902374
18.214682,-11.27856922,-14.90967751,-22.42134666
18.224682,-8.455039024,-14.1870451,-19.04746628
18.234682,-8.455039024,-14.1870451,-19.04746628
18.244682,-8.455039024,-14.1870451,-19.04746628
18.254682,-4.746163845,-11.41137123,-8.858827591
18.264682,-5.129015446,-10.61695385,-7.652844906
18.274682,-5.081159115,-9.6693964,-6.131010056
18.284682,-4.645665169,-8.812766075,-4.379463673
18.294682,-3.473181963,-7.616354465,-2.647060156
18.304682,-2.846262455,-7.042077065,-2.259422779
18.314682,-2.520838737,-6.338587284,-2.09671092
18.324682,-2.338984251,-5.644668579,-2.259422779
18.334682,-2.338984251,-5.644668579,-2.259422779
18.344682,-1.755135417,-5.486742496,-3.623331785
18.354682,-1.396211982,-5.611168861,-4.427320004
18.364682,-1.396211982,-5.611168861,-4.427320004
18.374682,-0.257228434,-4.304687977,-4.034897327
18.384682,1.211964726,-3.778266907,-3.36012125
18.394682,2.733799934,-3.328416348,-2.84805727
18.404682,4.169493675,-2.615355253,-2.364706993
18.414682,5.327619553,-1.85443759,-2.254637241
18.424682,5.327619553,-1.85443759,-2.254637241
18.434682,5.327619553,-1.85443759,-2.254637241
18.444682,5.327619553,-1.85443759,-2.254637241
18.454682,3.355933666,-3.438486099,-5.001597404
18.464682,2.087737799,-3.328416348,-3.790829182
18.474682,1.704886079,-3.108276606,-1.790429592
18.484682,1.704886079,-3.108276606,-1.790429592
18.494682,1.704886079,-3.108276606,-1.790429592
18.504682,8.060222626,-4.04147768,5.057828903
18.514682,9.098708153,-4.395615101,4.196412563
18.524682,9.419346809,-4.567898273,2.478366137
18.534682,8.964710236,-4.807180882,0.616750062
18.544682,8.103293419,-5.309673309,-0.77108711
18.554682,8.103293419,-5.309673309,-0.77108711
18.564682,5.428118229,-6.955935478,0.559322298
18.574682,5.428118229,-6.955935478,0.559322298
18.584682,4.853840828,-7.362715244,3.612564087
18.594682,5.327619553,-7.850851059,5.258825779
18.604682,6.279963017,-8.405985832,6.55095005
18.614682,8.041080475,-9.755537987,7.613363266
18.614682,8.041080475,-9.755537987,7.613363266
18.634682,7.686942577,-9.956535339,6.589235306
18.644682,6.921239376,-9.884750366,5.565107346
18.654682,6.174678802,-9.913464546,4.186841488
18.664682,5.748756409,-10.21017456,2.947359324
18.674682,5.595615864,-10.73659515,1.990230203
18.684682,6.055037498,-12.64606762,1.181456208
18.694682,6.380461693,-14.13918877,1.506880045
18.704682,6.380461693,-14.13918877,1.506880045
18.714682,6.380461693,-14.13918877,1.506880045
18.724682,10.40040398,-16.85264969,4.301696777
18.734682,12.19980621,-16.81436539,4.004986763
18.744682,12.19980621,-16.81436539,4.004986763
18.754682,12.19980621,-16.81436539,4.004986763
18.764682,16.16710663,-19.80060768,-1.460219979
18.774682,16.74617004,-21.16930199,-1.436291814
18.784682,17.96172333,-23.04527473,-0.364307255
18.794682,19.94297981,-24.82553482,1.392024517
18.804682,22.68515587,-26.27079964,3.44985199
18.814682,28.30350304,-25.73480797,5.531607628
18.824682,29.70091057,-24.31825638,4.627120972
18.834682,30.61975479,-23.0404892,2.650649309
18.844682,31.6247406,-21.37029839,0.640678287
18.854682,32.95036316,-19.75753593,-0.91465646
18.864682,32.95036316,-19.75753593,-0.91465646
18.874682,32.95036316,-19.75753593,-0.91465646
18.884682,32.95036316,-19.75753593,-0.91465646
18.894682,32.95036316,-19.75753593,-0.91465646
18.904682,40.07619095,-21.59043884,-1.852642894
18.914682,39.29613113,-22.39921188,-2.972483873
18.924682,37.33880234,-22.03550339,-3.652045488
18.934682,35.37190247,-21.38944244,-3.278765202
18.944682,35.37190247,-21.38944244,-3.278765202
18.954682,32.64408112,-21.56651115,0.042472601
18.964682,30.70111084,-22.20778656,-0.426520646
18.974682,30.11726189,-23.48555374,-0.684945464
18.984682,29.2654171,-25.65345192,-1.120439172
18.994682,28.08814812,-27.10350227,-0.790229678
19.004682,28.08814812,-27.10350227,-0.790229678
19.014682,27.49472809,-30.63530922,3.588635683
19.024682,27.82493782,-31.99921799,5.411966801
19.034682,28.38485909,-33.89911652,7.048657417
19.044682,29.17927551,-36.89493179,8.134998322
19.054682,29.88276482,-40.31666946,8.781061172
19.064682,32.17987442,-49.31846619,10.95374393
19.074682,33.20400238,-54.75974655,12.25065327
19.084682,33.06521988,-59.26303864,13.60977745
19.094682,31.50988579,-62.19664001,14.60519123
19.104682,29.14577675,-63.93861389,15.51446342
19.114682,27.33680153,-65.95815277,16.38545036
19.124682,26.6668129,-70.71508789,17.18943977
19.134682,26.41317368,-84.12924957,20.79302979
19.144682,23.216362,-87.70891571,24.16212463
19.154682,19.56970024,-90.44152069,28.87120056
19.164682,13.38664627,-87.62755585,33.2309227
19.174682,7.423732281,-80.54001617,33.02035522
19.184682,7.423732281,-80.54001617,33.02035522
19.194682,7.423732281,-80.54001617,33.02035522
19.204682,7.423732281,-80.54001617,33.02035522
19.214682,7.423732281,-80.54001617,33.02035522
19.224682,7.423732281,-80.54001617,33.02035522
19.234682,-30.36850929,-43.61876297,-1.689931035
19.244682,-31.59841919,-36.28237152,-3.331407309
19.254682,-31.26342392,-32.35335541,-6.772286415
19.264682,-31.26342392,-32.35335541,-6.772286415
19.274682,-31.26342392,-32.35335541,-6.772286415
19.284682,-25.43450737,-19.52304077,-24.41217422
19.294682,-22.29512405,-17.52264023,-24.29253387
19.304682,-19.13181305,-15.96730518,-22.5888443
19.314682,-15.63829231,-15.01017666,-19.71745682
19.324682,-15.63829231,-15.01017666,-19.71745682
19.334682,-9.010173798,-12.62692547,-13.70668602
19.344682,-8.880961418,-10.77009487,-12.91226959
19.354682,-7.96690321,-9.477970123,-12.67298698
19.364682,-6.708278179,-8.650053978,-12.41456223
19.374682,-5.363512039,-8.195417404,-12.12742329
19.384682,-4.028316975,-7.817351341,-11.47657585
19.394682,-2.023131609,-6.343372822,-8.748757362
19.404682,-0.558724105,-5.558526993,-7.954340458
19.414682,0.393619329,-4.926821709,-7.499704361
19.424682,1.106680512,-4.491328239,-7.561917782
19.434682,1.317248821,-4.180261135,-7.729415417
19.444682,1.006181955,-3.806980848,-7.767700672
19.454682,-0.089730851,-2.969492912,-7.179066181
19.464682,-0.199800685,-3.060420275,-6.351149559
19.474682,0.250049978,-3.448057413,-5.336592674
19.484682,1.020538807,-3.696911097,-4.350749969
19.494682,2.030309916,-3.850051641,-3.474976778
19.504682,3.011367321,-3.940979004,-2.900699139
19.514682,3.901497364,-3.859622955,-2.910270452
19.524682,3.901497364,-3.859622955,-2.910270452
19.534682,3.901497364,-3.859622955,-2.910270452
19.544682,3.901497364,-3.859622955,-2.910270452
19.554682,3.298506021,-2.36650157,-2.618346214
19.564682,2.743371248,-1.859223247,-1.7138592
19.574682,2.42273283,-1.868794441,-0.91465646
19.584682,2.42273283,-1.868794441,-0.91465646
19.594682,2.42273283,-1.868794441,-0.91465646
19.604682,3.011367321,-4.242474556,-0.215952247
19.614682,3.805784464,-4.835894585,0.066400826
19.624682,3.805784464,-4.835894585,0.066400826
19.634682,5.65304327,-6.463014126,0.530608416
19.644682,5.65304327,-6.463014126,0.530608416
19.654682,5.65304327,-6.463014126,0.530608416
19.664682,7.471588612,-7.922635555,1.86580348
19.674682,7.490731239,-7.759923935,2.655434847
19.684682,7.87358284,-7.740781307,3.373281717
19.694682,8.59142971,-7.975277901,3.837489367
19.704682,9.328418732,-8.23370266,4.081557274
19.714682,9.816555023,-8.693124771,4.134199142
19.724682,9.725627899,-9.114261627,3.918845177
19.734682,9.395418167,-9.961320877,3.425923824
19.744682,9.031708717,-11.27258778,3.019144058
19.754682,8.706285477,-12.65085316,3.090928555
19.764682,8.74935627,-13.33041477,3.894917011
19.774682,10.34297562,-12.60778236,5.617749214
19.784682,11.577672,-12.09571838,5.852245808
19.794682,12.43908882,-11.82772255,5.684748173
19.804682,12.88415337,-11.54536915,5.230112076
19.814682,12.88415337,-11.54536915,5.230112076
19.824682,12.12802124,-10.9806633,2.880360365
19.834682,11.577672,-11.25344467,2.133799553
19.844682,11.577672,-11.25344467,2.133799553
19.854682,11.577672,-11.25344467,2.133799553
19.864682,11.577672,-11.25344467,2.133799553
19.874682,11.577672,-11.25344467,2.133799553
19.884682,16.69352722,-13.27298737,5.866602898
19.894682,17.84208298,-13.88554955,5.3210392
19.904682,17.84208298,-13.88554955,5.3210392
19.914682,20.34497452,-14.72303772,4.363910198
19.924682,20.34497452,-14.72303772,4.363910198
19.934682,21.58924294,-12.88535023,3.598206997
19.944682,22.39323044,-12.54556942,2.397010088
19.954682,22.92443657,-12.46899891,0.927816987
19.964682,22.76172447,-12.73699474,-0.464805812
19.974682,22.76172447,-12.73699474,-0.464805812
19.984682,22.15394783,-16.04866219,-1.57028985
19.994682,22.69472694,-16.91007805,-0.890728235
20.004682,23.9198513,-17.59921074,-0.125024989
20.014682,25.34118843,-18.22134399,-0.048454657
20.024682,27.32723045,-18.50848389,-0.689731121
20.034682,30.33261681,-19.70010948,-2.690130949
20.044682,31.62952614,-21.82972145,-3.34576416
20.054682,32.05066299,-23.7056942,-2.871985435
20.064682,31.1222477,-24.78246498,-1.417149186
20.074682,28.63849831,-24.8351059,0.568893611
20.084682,25.98724937,-24.85903358,2.574079037
20.094682,21.158535,-26.59143829,4.229912281
20.104682,21.158535,-26.59143829,4.229912281
20.114682,21.158535,-26.59143829,4.229912281
20.124682,21.158535,-26.59143829,4.229912281
20.134682,19.31127548,-22.62413788,3.459423304
20.144682,21.31167412,-22.39921188,3.143570662
20.154682,23.24986076,-21.90150642,2.641077995
20.164682,23.24986076,-21.90150642,2.641077995
20.174682,23.24986076,-21.90150642,2.641077995
20.184682,31.97409248,-27.07957458,1.157527924
20.194682,32.92164993,-28.87897682,2.69850564
20.204682,35.20919037,-33.80818939,4.646263599
20.214682,37.16651917,-39.9577446,6.608377934
20.224682,37.16651917,-39.9577446,6.608377934
20.234682,37.16651917,-39.9577446,6.608377934
20.244682,37.16651917,-39.9577446,6.608377934
20.254682,33.20878983,-70.62416077,17.95035744
20.264682,30.22733116,-76.80721283,18.79741669
20.274682,26.34617424,-82.05228424,18.38585091
20.284682,22.40280151,-85.76594543,17.69671822
20.294682,14.41077423,-89.47003174,20.35275078
20.304682,6.935596466,-85.38308716,26.8181572
20.314682,0.077766739,-77.95098114,37.09293747
20.324682,-5.655436516,-71.09793854,47.84628296
20.334682,-13.67139244,-62.44070816,49.58825684
20.344682,-21.0077858,-54.25725174,39.39962006
20.354682,-25.84128761,-46.49015045,6.661019802
20.364682,-27.2961235,-44.91088867,-6.705287457
20.374682,-30.08615494,-42.8434906,-15.7501564
20.384682,-34.78565979,-37.02893066,-19.54517365
20.394682,-39.39902115,-27.40499687,-16.63550186
20.404682,-39.83451462,-18.74776459,-9.107681274
20.414682,-33.92424393,-15.96251965,-3.632902861
20.424682,-33.92424393,-15.96251965,-3.632902861
20.434682,-33.92424393,-15.96251965,-3.632902861
20.444682,-33.92424393,-15.96251965,-3.632902861
20.454682,-12.76211929,-14.17747402,-27.23570633
20.464682,-12.58026505,-13.47877026,-28.3746891
20.474682,-13.16889954,-11.99522018,-25.39801788
20.484682,-13.16889954,-11.99522018,-25.39801788
20.494682,-13.16889954,-11.99522018,-25.39801788
20.504682,-13.16889954,-11.99522018,-25.39801788
20.514682,-8.742177963,-6.989434719,-6.667002201
20.524682,-8.742177963,-6.989434719,-6.667002201
20.534682,-4.013959885,-6.003592014,-5.939583778
20.544682,-1.46321106,-5.869594097,-5.006382942
20.554682,3.671786308,-4.835894585,-3.451048374
20.564682,6.342176437,-4.405186653,-3.087339401
20.574682,8.725427628,-4.213760853,-3.26440835
20.584682,10.13240719,-3.907479286,-3.96789813
20.594682,10.1084795,-2.964707375,-4.757529736
20.604682,9.098708153,-1.758724689,-5.264808178
20.614682,6.217749596,-1.05523479,-5.408377171
20.624682,5.270191669,-1.462014675,-5.059025288
20.634682,4.681557655,-1.730010748,-4.427320004
20.644682,4.284348965,-1.969292998,-3.580260992
20.654682,4.179064751,-2.304288149,-2.517847538
20.664682,4.145565033,-2.246860504,-1.498505235
20.674682,5.432903767,-0.696311414,1.06660068
20.684682,6.150750637,-0.260817677,1.621735573
20.694682,6.638886452,-0.265603304,1.621735573
20.704682,6.825526714,-0.370887518,1.224527001
20.714682,6.629314899,-0.35174492,0.678963423
20.724682,6.011966705,-0.385244459,0.133399859
20.734682,4.973481655,-0.452243477,-0.292522579
20.744682,4.973481655,-0.452243477,-0.292522579
20.754682,4.973481655,-0.452243477,-0.292522579
20.764682,4.973481655,-0.452243477,-0.292522579
20.774682,4.973481655,-0.452243477,-0.292522579
20.784682,5.571687698,-1.524227977,0.49232325
20.794682,6.940382004,-2.251646042,0.583250523
20.804682,6.940382004,-2.251646042,0.583250523
20.814682,6.940382004,-2.251646042,0.583250523
20.824682,6.940382004,-2.251646042,0.583250523
20.834682,10.28554821,-4.831109047,2.124228239
20.844682,10.04148006,-4.582255363,3.057429075
20.854682,9.850054741,-4.295116425,3.650849104
20.864682,9.759127617,-4.017549038,3.981058598
20.874682,9.759127617,-4.017549038,3.981058598
20.884682,9.945767403,-3.921836376,2.373081923
20.894682,10.40518951,-4.065405846,1.597807288
20.904682,11.07039356,-4.218546391,0.884746194
20.914682,11.6207428,-4.687539577,0.233898416
20.924682,11.97009563,-5.510670662,-0.297308207
20.934682,11.97009563,-5.510670662,-0.297308207
20.944682,11.53938675,-6.620940208,-0.096311115
20.954682,10.92203903,-6.429514408,0.482751966
20.964682,10.48176003,-6.592226505,1.013958573
20.974682,10.42433167,-7.094718933,1.238883972
20.984682,10.52483082,-7.420143127,1.291526079
20.994682,10.64447117,-7.759923935,1.339382529
21.004682,12.9320097,-8.784051895,1.076171994
21.014682,14.20977688,-8.908478737,0.329611331
21.024682,15.0089798,-9.205188751,-0.613160789
21.034682,15.66939926,-9.497113228,-1.771286964
21.044682,15.96132374,-9.736394882,-2.699702263
21.054682,15.774683,-10.32981491,-2.938984394
21.064682,15.774683,-10.32981491,-2.938984394
21.074682,15.774683,-10.32981491,-2.938984394
21.084682,15.774683,-10.32981491,-2.938984394
21.094682,15.774683,-10.32981491,-2.938984394
21.104682,16.26760483,-17.34078598,3.387638569
21.114682,16.99023628,-17.71885109,3.430709362
21.124682,18.44028854,-18.5228405,3.272783279
21.134682,18.44028854,-18.5228405,3.272783279
21.144682,23.15893364,-20.28874397,0.92303133
21.154682,24.38405991,-20.55195427,-0.062811591
21.164682,25.049263,-21.04008865,-1.082154036
21.174682,25.049263,-21.04008865,-1.082154036
21.184682,25.63311195,-21.65265274,-2.484348059
21.194682,27.21237564,-21.86800575,-1.254437327
21.204682,28.24128914,-22.45185471,0.109471634
21.214682,28.60499763,-22.77249336,1.205384374
21.224682,28.24128914,-22.42314148,1.81794703
21.234682,27.13101959,-21.95414734,1.951945066
21.244682,25.93460846,-21.71007919,2.124228239
21.254682,25.93460846,-21.71007919,2.124228239
21.264682,22.05344963,-22.09771729,2.018944025
21.274682,20.60818481,-21.32244301,2.693720102
21.284682,20.63689804,-20.62373924,3.602992773
21.294682,22.39801598,-21.62393761,3.401995659
21.304682,24.76212502,-22.42314148,2.363510609
21.314682,26.7673111,-22.58106804,0.942173898
21.324682,30.658041,-26.07458878,-0.617946446
21.334682,32.38565826,-29.21875763,-0.326022089
21.344682,32.38565826,-29.21875763,-0.326022089
21.354682,32.38565826,-29.21875763,-0.326022089
21.364682,32.1894455,-41.37908173,7.728219032
21.374682,32.1894455,-41.37908173,7.728219032
21.384682,32.1894455,-41.37908173,7.728219032
21.394682,32.1894455,-41.37908173,7.728219032
21.404682,32.1894455,-41.37908173,7.728219032
21.414682,20.36411667,-72.88777161,20.60160446
21.424682,17.39223099,-76.32865143,15.79681683
21.434682,13.72164154,-76.35736084,12.02572823
21.444682,10.62054348,-76.18508148,14.36590862
21.454682,10.62054348,-76.18508148,14.36590862
21.464682,10.62054348,-76.18508148,14.36590862
21.474682,-1.735992789,-60.73701859,47.18107986
21.484682,-2.051845312,-57.43970871,37.40400696
21.494682,-1.745564103,-54.32903671,23.54956245
21.504682,-2.319841623,-53.50590897,7.331010342
21.514682,-2.319841623,-53.50590897,7.331010342
21.524682,-2.319841623,-53.50590897,7.331010342
21.534682,-50.53521729,-38.76133347,-14.51546001
21.544682,-58.66603088,-25.4620266,-5.776872158
21.554682,-58.66603088,-25.4620266,-5.776872158
21.564682,-44.63451767,-18.24527359,11.48973656
21.574682,-32.33062363,-19.00618935,7.460222721
21.584682,-13.13539982,-20.45624161,-13.8358984
21.594682,-6.937989235,-19.32204247,-23.04826546
21.604682,-3.43011117,-16.77607918,-28.3364048
21.614682,-1.482353687,-14.11526108,-28.16890717
21.624682,-0.410369098,-12.60778236,-23.75175667
21.634682,-0.132801652,-12.1292181,-18.15733719
21.644682,-1.200000525,-10.35374355,-9.136395454
21.654682,-1.582852125,-9.028120041,-6.001797199
21.664682,-1.568495274,-7.946564198,-3.757329702
21.674682,-1.276570916,-7.085147858,-2.54656148
21.684682,-1.271785259,-6.453442574,-2.627917528
21.694682,-1.649851203,-5.343173027,-3.608974695
21.704682,-1.649851203,-5.343173027,-3.608974695
21.714682,-1.649851203,-5.343173027,-3.608974695
21.724682,-1.649851203,-5.343173027,-3.608974695
21.734682,-1.649851203,-5.343173027,-3.608974695
21.744682,-0.372083932,-3.361915827,-2.766701221
21.754682,0.412761897,-3.553341627,-2.876770973
21.764682,1.006181955,-3.649054527,-3.063411236
21.774682,1.006181955,-3.649054527,-3.063411236
21.784682,1.006181955,-3.649054527,-3.063411236
21.794682,1.456032634,-2.409572363,-3.312264681
21.804682,2.00638175,-2.227717876,-3.254837036
21.814682,2.791227579,-2.151147604,-3.05862546
21.824682,3.55693078,-2.275574446,-2.694916487
21.834682,3.55693078,-2.275574446,-2.694916487
21.844682,4.829912663,-3.371487141,-1.292722464
21.854682,4.896911621,-3.653840065,-0.62751776
21.864682,4.906482697,-3.845266104,0.305683106
21.874682,5.016552448,-3.830909014,1.200598717
21.884682,5.36111927,-3.792623997,1.999801517
21.894682,5.782256126,-4.0127635,2.239083767
21.904682,5.782256126,-4.0127635,2.239083767
21.914682,7.438089371,-5.936593056,0.430109859
21.924682,8.117650986,-6.654439926,-0.349950314
21.934682,8.734998703,-7.190432072,-1.072582722
21.944682,9.184849739,-7.616354465,-1.608574986
21.954682,9.615557671,-8.152346611,-1.723430514
21.964682,10.0462656,-9.142974854,-0.641874671
21.974682,10.31904793,-9.607182503,0.2434697
21.984682,10.69711399,-10.14796066,1.023529887
21.994682,11.24267673,-10.67438221,1.707877159
22.004682,11.802598,-10.72702408,2.545365095
22.014682,12.05145168,-10.20060253,3.325425386
22.024682,11.92702484,-9.712467194,4.225126743
22.034682,11.92702484,-9.712467194,4.225126743
22.044682,11.42931747,-9.79860878,5.177470207
22.054682,11.6398859,-9.822537422,5.148756027
22.064682,12.00838089,-9.875179291,5.210969448
22.074682,12.00838089,-9.875179291,5.210969448
22.084682,13.3340044,-10.54995537,5.172684193
22.094682,13.3340044,-10.54995537,5.172684193
22.104682,13.3340044,-10.54995537,5.172684193
22.114682,13.3340044,-10.54995537,5.172684193
22.124682,13.3340044,-10.54995537,5.172684193
22.134682,11.45324516,-9.899106979,1.535593987
22.144682,11.11825085,-10.57866859,1.856232166
22.154682,11.25224876,-11.51186943,2.655434847
22.164682,11.25224876,-11.51186943,2.655434847
22.174682,15.36790371,-13.12941742,4.962115765
22.184682,17.29173279,-12.92842102,4.818546772
22.194682,18.85185242,-12.80877972,3.885345697
22.204682,19.91426659,-12.84706497,2.258226395
22.214682,20.38325882,-12.98106289,0.157328084
22.224682,20.38325882,-12.98106289,0.157328084
22.234682,20.38325882,-12.98106289,0.157328084
22.244682,20.62732697,-14.6321106,-5.451447964
22.254682,21.5844574,-15.89073563,-4.963312149
22.264682,22.97229385,-17.25942993,-3.695116282
22.274682,24.1447773,-18.13998795,-1.953141451
22.284682,24.1447773,-18.13998795,-1.953141451
22.294682,24.3457737,-17.40299988,3.344567776
22.304682,23.24986076,-17.42692757,4.397409916
22.314682,22.25923347,-17.14457512,4.732405186
22.324682,21.71845436,-17.26900101,4.306482315
22.334682,21.41217422,-17.89113426,3.067000389
22.344682,21.70888329,-18.21177292,2.047657967
22.354682,21.70888329,-18.21177292,2.047657967
22.364682,21.70888329,-18.21177292,2.047657967
22.374682,21.70888329,-18.21177292,2.047657967
22.384682,21.70888329,-18.21177292,2.047657967
22.394682,26.12603378,-20.76730728,-3.278765202
22.404682,25.2119751,-20.14995956,-3.862613916
22.414682,25.2119751,-20.14995956,-3.862613916
22.424682,25.2119751,-20.14995956,-3.862613916
22.434682,25.2119751,-20.14995956,-3.862613916
22.444682,23.40778732,-21.07837486,2.301297188
22.454682,22.69951248,-22.20778656,3.78484726
22.464682,21.84288216,-23.80140686,5.148756027
22.474682,21.02453613,-25.06481743,6.589235306
22.484682,21.02453613,-25.06481743,6.589235306
22.494682,22.67558289,-30.76930618,8.474779129
22.504682,23.49392891,-33.4444809,8.359924316
22.514682,24.25963211,-36.33979797,9.053842545
22.524682,25.06362152,-40.77609253,10.56132126
22.534682,25.05883598,-45.77708817,12.42772293
22.544682,21.96730804,-51.56293488,17.87378693
22.554682,20.71346855,-52.90291595,19.73540306
22.564682,20.78046799,-54.4391098,20.71646118
22.574682,21.94816589,-56.12365341,23.13799667
22.584682,23.86242294,-58.96632767,26.05723953
22.594682,25.04447746,-64.61338806,27.03351212
22.604682,20.92403793,-70.05467224,24.99961281
22.614682,20.92403793,-70.05467224,24.99961281
22.624682,0.278763831,-68.65725708,22.66900444
22.634682,-4.77009201,-62.9479866,20.1421833
22.644682,-8.469395638,-57.44927979,15.15554047
22.654682,-9.909874916,-56.02794266,9.005986214
22.664682,-13.45603848,-63.26862335,-0.72323066
22.674682,-49.42494965,-40.80958939,-28.04447937
22.684682,-61.7814827,-16.19223022,-27.46063042
22.694682,-61.7814827,-16.19223022,-27.46063042
22.704682,-61.7814827,-16.19223022,-27.46063042
22.714682,-61.7814827,-16.19223022,-27.46063042
22.724682,-13.23589802,-20.68595123,-2.900699139
22.734682,-10.71864891,-19.0253334,-10.88794136
22.744682,-10.71864891,-19.0253334,-10.88794136
22.754682,-10.71864891,-19.0253334,-10.88794136
22.764682,-7.277770042,-13.89990711,-19.86102676
22.774682,-5.42572546,-13.33998585,-14.24746418
22.784682,-3.903890133,-12.45942783,-9.80638504
22.794682,-2.348555326,-11.41615677,-7.23170805
22.804682,-2.348555326,-11.41615677,-7.23170805
22.814682,-2.348555326,-11.41615677,-7.23170805
22.824682,3.50907445,-8.181060791,-6.389434814
22.834682,4.284348965,-7.367500782,-6.805785656
22.844682,4.944767952,-6.630511761,-6.920641422
22.854682,5.423332691,-6.199803352,-6.906284332
22.864682,5.423332691,-6.199803352,-6.906284332
22.874682,5.279763222,-5.204389095,-6.293721676
22.884682,4.547559261,-4.740181446,-5.346164227
22.894682,3.800998688,-4.299902439,-3.939184189
22.904682,3.102294445,-3.926621914,-2.709273338
22.914682,2.566302299,-3.687339783,-1.924427629
22.924682,2.183450699,-3.634697676,-1.589432478
22.934682,1.738385677,-3.672982693,-1.776072621
22.944682,1.322034478,-3.873979807,-2.206780672
22.954682,0.752542734,-3.653840065,-2.828914642
22.964682,0.230907381,-3.055634499,-3.03948307
22.974682,0.044267219,-2.591426849,-2.570489645
22.984682,0.345762879,-2.510071039,-1.761715651
22.994682,2.307877541,-3.337987661,-0.177667081
23.004682,3.274577856,-4.031906128,-0.034097724
23.014682,4.030709743,-4.529613495,-0.062811591
23.024682,4.030709743,-4.529613495,-0.062811591
23.034682,4.738985062,-5.166104317,0.042472601
23.044682,4.920839787,-5.467599869,0.023330022
23.054682,5.021338463,-5.922235966,-0.072382882
23.064682,5.021338463,-5.922235966,-0.072382882
23.074682,5.021338463,-5.922235966,-0.072382882
23.084682,5.021338463,-5.922235966,-0.072382882
23.094682,6.064609051,-7.41535759,3.823132277
23.104682,6.064609051,-7.41535759,3.823132277
23.114682,8.921639442,-8.362915039,5.617749214
23.124682,8.921639442,-8.362915039,5.617749214
23.134682,8.921639442,-8.362915039,5.617749214
23.144682,10.46261692,-9.966106415,3.971487284
23.154682,10.39083195,-10.56909752,3.229712248
23.164682,10.54875851,-11.13380337,2.990430117
23.174682,10.93639565,-11.63151073,3.186641455
23.184682,11.46760273,-12.110075,3.660420418
23.194682,12.15673542,-12.08614731,4.138985157
23.204682,12.43430328,-11.82772255,3.808775425
23.214682,12.89372444,-11.67458153,3.177070379
23.224682,13.68814182,-11.85165024,2.483151674
23.234682,14.77448368,-12.53599739,2.062014818
23.244682,15.83211136,-13.49312687,1.750947952
23.254682,17.31566048,-14.26840115,1.05224371
23.264682,17.50708771,-13.52662659,0.789033294
23.274682,17.55494308,-12.64606762,0.224327117
23.284682,17.65065575,-12.37807178,-0.790229678
23.294682,17.93779564,-12.84227943,-2.005783558
23.304682,18.45464516,-13.40219975,-3.326621771
23.314682,19.05763626,-14.38804245,-5.068596363
23.324682,19.0624218,-14.44546986,-4.891527653
23.334682,19.07199287,-13.85204983,-4.17846632
23.344682,19.07199287,-13.85204983,-4.17846632
23.354682,19.07199287,-13.85204983,-4.17846632
23.364682,20.2923317,-13.63191032,0.784247637
23.374682,20.2923317,-13.63191032,0.784247637
23.384682,20.2923317,-13.63191032,0.784247637
23.394682,20.2923317,-13.63191032,0.784247637
23.404682,23.24507523,-14.83310795,4.31126833
23.414682,24.05385017,-15.34517193,4.832903385
23.424682,25.28854561,-15.80459309,5.364109993
23.434682,26.59024239,-16.01994705,5.723033428
23.444682,26.59024239,-16.01994705,5.723033428
23.454682,26.59024239,-16.01994705,5.723033428
23.464682,26.59024239,-16.01994705,5.723033428
23.474682,28.66242599,-17.24028778,2.727219582
23.484682,27.35594559,-16.48415565,3.047857761
23.494682,25.8771801,-15.34517193,3.703491211
23.504682,24.8482666,-14.60339642,4.35912466
23.514682,24.8482666,-14.60339642,4.35912466
23.524682,25.09233475,-16.18265915,3.75134778
23.534682,25.05883598,-17.64228058,2.732005358
23.544682,24.4462719,-18.36969948,1.707877159
23.554682,24.3074894,-19.01097679,1.128814101
23.564682,24.45584297,-19.88674927,0.310468733
23.574682,26.16431999,-21.50908279,-0.000598206
23.584682,28.08814812,-22.48535347,-0.010169496
23.594682,30.44268608,-24.29432869,-0.474377096
23.604682,32.37608719,-26.75415039,-0.876371264
23.614682,34.20420456,-30.04188919,-0.799800992
23.624682,35.74996567,-34.24847031,-0.125024989
23.634682,36.59223938,-39.46960831,1.071386337
23.644682,36.59223938,-39.46960831,1.071386337
23.654682,36.59223938,-39.46960831,1.071386337
23.664682,36.59223938,-39.46960831,1.071386337
23.674682,36.59223938,-39.46960831,1.071386337
23.684682,36.59223938,-39.46960831,1.071386337
23.694682,28.06900597,-66.82435608,21.01795578
23.704682,28.06900597,-66.82435608,21.01795578
23.714682,28.06900597,-66.82435608,21.01795578
23.724682,24.8482666,-75.67780304,30.81417274
23.734682,21.01017952,-74.7685318,32.13022614
23.744682,16.63131332,-74.68238831,30.85724258
23.754682,11.2378912,-72.0981369,26.42573547
23.764682,2.264806747,-66.46543121,20.32882309
23.774682,2.264806747,-66.46543121,20.32882309
23.784682,-16.88256073,-49.21318436,7.0151577
23.794682,-17.85883141,-49.7204628,4.191627026
23.804682,-19.97408676,-49.47639465,-0.680159807
23.814682,-25.19044113,-44.25525665,-6.681358814
23.824682,-31.68456078,-35.86123276,-11.65364456
23.834682,-31.68456078,-35.86123276,-11.65364456
23.844682,-27.61676216,-19.21197319,-11.88335514
23.854682,-19.50509453,-20.23131561,-11.66800117
23.864682,-13.01097298,-19.60439682,-12.77348518
23.874682,-8.833105087,-17.9581337,-15.15195084
23.884682,-6.861418724,-16.54158211,-18.42533302
23.894682,-6.861418724,-16.54158211,-18.42533302
23.904682,-7.813762188,-12.56949711,-21.53121567
23.914682,-8.445467949,-11.80857944,-18.66461563
23.924682,-8.64167881,-11.50708389,-15.06102371
23.934682,-8.823533058,-11.07637596,-11.64885902
23.944682,-9.024530411,-10.13360405,-8.528617859
23.954682,-8.813961983,-9.214759827,-6.150152206
23.964682,-7.033702374,-8.43948555,-3.987040758
23.974682,-5.961717606,-8.286344528,-3.857828379
23.984682,-5.033302307,-8.008777618,-3.929612875
23.994682,-4.009174347,-7.764709473,-3.766901016
24.004682,-4.009174347,-7.764709473,-3.766901016
24.014682,-1.89391911,-7.511070251,-3.230908871
24.024682,-1.89391911,-7.511070251,-3.230908871
24.034682,-1.89391911,-7.511070251,-3.230908871
24.044682,-1.89391911,-7.511070251,-3.230908871
24.054682,-1.89391911,-7.511070251,-3.230908871
24.064682,2.025524378,-7.654639721,-1.254437327
24.074682,2.298306227,-7.640282631,-1.220937729
24.084682,2.298306227,-7.640282631,-1.220937729
24.094682,2.298306227,-7.640282631,-1.220937729
24.104682,2.298306227,-7.640282631,-1.220937729
24.114682,3.375076294,-8.214560509,-1.723430514
24.124682,3.537788391,-8.611768723,-1.914856315
24.134682,3.638286829,-9.401400566,-1.924427629
24.144682,3.375076294,-10.47338486,-1.876571178
24.154682,3.375076294,-10.47338486,-1.876571178
24.164682,3.375076294,-10.47338486,-1.876571178
24.174682,4.188635826,-14.09611797,2.516651154
24.184682,4.188635826,-14.09611797,2.516651154
24.194682,7.122236729,-15.05324745,5.536393166
24.204682,8.648857117,-15.32124329,6.560521603
24.214682,9.936196327,-15.40259933,7.082156658
24.224682,11.53460121,-15.62752438,6.637091637
24.234682,11.77866936,-15.93380642,6.02452898
24.244682,11.98923779,-16.43629837,5.660820007
24.254682,12.35294724,-17.28814316,5.498108387
24.264682,13.17607784,-18.3601284,5.555535793
24.274682,14.50170135,-19.2885437,5.598606586
24.284682,17.39223099,-19.91546249,5.316253662
24.294682,18.67956924,-19.83410645,5.00040102
24.304682,19.7659111,-19.51825523,4.497908592
24.314682,20.43590164,-19.25504303,3.689134359
24.324682,20.49333,-18.73340797,2.775076151
24.334682,20.49333,-18.73340797,2.775076151
24.334682,19.75155449,-17.99641991,2.05722928
24.354682,19.75155449,-17.99641991,2.05722928
24.364682,19.75155449,-17.99641991,2.05722928
24.374682,19.75155449,-17.99641991,2.05722928
24.384682,19.75155449,-17.99641991,2.05722928
24.394682,15.60239983,-17.44606972,7.73300457
24.404682,16.26760483,-16.96271896,8.173283577
24.414682,16.26760483,-16.96271896,8.173283577
24.424682,16.26760483,-16.96271896,8.173283577
24.434682,16.26760483,-16.96271896,8.173283577
24.444682,17.98565102,-16.45544052,6.058028698
24.454682,18.80878258,-15.95773411,5.158327579
24.464682,19.59362793,-15.44088459,4.138985157
24.474682,19.59362793,-15.44088459,4.138985157
24.484682,21.95773697,-14.29232979,0.736391187
24.494682,22.92922211,-13.87119293,0.109471634
24.504682,24.03470612,-13.86162186,-0.043669011
24.514682,25.43690109,-14.13440323,0.1477568
24.524682,27.02095032,-13.97647667,0.707677305
24.534682,28.56671333,-13.39262867,1.760519266
24.544682,30.83510971,-11.54536915,3.741776466
24.554682,31.75873947,-10.57388306,4.071985722
24.564682,32.52922821,-9.937392235,3.722633839
24.574682,32.79722214,-10.17188931,2.71286273
24.584682,32.29951477,-11.13858986,1.353739381
24.594682,31.18446159,-11.92343521,0.578464866
24.604682,29.09313393,-12.60778236,1.937588096
24.614682,29.09313393,-12.60778236,1.937588096
24.624682,29.09313393,-12.60778236,1.937588096
24.634682,29.09313393,-12.60778236,1.937588096
24.644682,28.17907524,-13.65105343,2.870789051
24.654682,27.57608414,-13.89990711,1.028315544
24.664682,26.60938454,-14.36411476,-1.230509043
24.674682,26.60938454,-14.36411476,-1.230509043
24.684682,26.60938454,-14.36411476,-1.230509043
24.694682,21.11546326,-17.8576355,-1.752144337
24.704682,21.11546326,-17.8576355,-1.752144337
24.714682,19.65105629,-19.64268112,2.93778801
24.724682,19.49312973,-20.46581268,5.210969448
24.734682,19.49312973,-20.46581268,5.210969448
24.744682,19.49312973,-20.46581268,5.210969448
24.754682,23.34557343,-27.66342163,10.16889763
24.764682,24.19741821,-30.156744,10.23589706
24.774682,25.16411972,-32.96113205,10.05404282
24.784682,25.714468,-35.34917068,9.388837814
24.794682,26.46102905,-37.31607056,8.47956562
24.804682,28.96870804,-41.48436737,6.617949009
24.814682,29.60998344,-43.44169617,6.632306099
24.824682,29.48077202,-44.55675125,7.465008259
24.834682,28.51885605,-46.432724,7.627720356
24.844682,27.01616478,-49.47160721,7.125227451
24.854682,25.11626244,-53.03691483,6.823731899
24.864682,25.11626244,-53.03691483,6.823731899
24.874682,25.11626244,-53.03691483,6.823731899
24.884682,25.11626244,-53.03691483,6.823731899
24.894682,11.71167088,-58.93761444,14.96890068
24.904682,11.61117172,-57.34878159,18.80698776
24.914682,12.03230858,-56.78407288,21.53001976
24.924682,12.03230858,-56.78407288,21.53001976
24.934682,12.03230858,-56.78407288,21.53001976
24.944682,12.03230858,-56.78407288,21.53001976
24.944682,-4.5930233,-58.45904922,11.0685997
24.964682,-4.5930233,-58.45904922,11.0685997
24.974682,-30.88535881,-35.15295792,-1.479362607
24.984682,-32.31626511,-33.36791229,-9.260822296
24.994682,-32.31626511,-33.36791229,-9.260822296
25.004682,-34.44109344,-21.19801521,-21.93799591
25.014682,-34.44109344,-21.19801521,-21.93799591
