Time (s),Acceleration x (m/s^2),Acceleration y (m/s^2),Acceleration z (m/s^2)
0.051698443,5.241477966,2.959921598,8.063214302
0.060352818,5.097908497,2.993421078,7.914859295
0.070352818,5.054837704,2.950350285,8.048856735
0.080352818,4.872983456,2.754138947,8.221140862
0.090352818,4.46620369,2.553141832,8.45085144
0.100352818,3.958925009,2.457428932,8.446065903
0.110352818,3.652643681,2.538784742,8.431708336
0.120352818,3.657429457,2.773281336,8.24506855
0.130352818,3.710071564,3.122633457,7.847859859
0.140352818,3.480360508,3.160918713,7.685148239
0.150352818,3.001796007,3.08434844,7.41236639
0.160352818,2.489732027,2.959921598,7.120441914
0.170352818,2.260020971,2.840280533,7.086942673
0.180352818,2.489732027,2.629712105,7.278368473
0.190352818,3.757927895,1.591227055,7.350152969
0.200352818,3.963710785,1.90229404,7.106084824
0.210352818,4.064209461,2.624926329,6.838088989
0.220352818,3.609572887,2.888136864,6.799803734
0.230352818,3.198007345,3.065205812,7.106084824
0.240352818,3.059223652,3.357130051,7.914859295
0.250352818,2.877369165,3.467200041,9.618548393
0.260352818,2.925225735,2.98863554,14.97368622
0.270352818,3.308077335,3.175275564,16.73958969
0.280352818,3.360719442,2.567498684,17.218153
0.290352818,3.489931822,1.859223247,18.06042671
0.300352818,3.432504177,2.170290232,18.32842255
0.310352818,3.50907445,2.945564747,17.81635857
0.320352818,5.36111927,2.964707375,13.3465662
0.330352818,8.084151268,2.256431818,11.42273712
0.340352818,8.084151268,2.256431818,11.42273712
0.350352818,8.084151268,2.256431818,11.42273712
0.360352818,10.98903847,1.414158225,15.23689651
0.370352818,10.98903847,1.414158225,15.23689651
0.380352818,9.046066284,2.117648125,17.27558136
0.390352818,7.864011765,3.151347399,19.30469513
0.400352818,7.916653633,3.567698479,20.36710739
0.410352818,8.371290207,3.735196114,20.57767677
0.420352818,8.433503151,3.850051641,19.81197357
0.430352818,8.012366295,4.256831646,18.16571045
0.440352818,7.351947784,5.185246468,15.93560028
0.450352818,6.945167542,7.152146816,10.1832552
0.460352818,7.390232563,7.908278942,7.54157877
0.470352818,8.05065155,8.43948555,5.660820007
0.480352818,8.672785759,8.693124771,4.756333351
0.490352818,8.902496338,8.693124771,5.325825214
0.500352818,8.160721779,8.501698494,6.488736629
0.510352818,6.725028038,8.252845764,7.455437183
0.520352818,6.725028038,8.252845764,7.455437183
0.530352818,6.725028038,8.252845764,7.455437183
0.540352818,4.121636868,6.573083878,9.570692062
0.550352818,4.121636868,6.573083878,9.570692062
0.560352818,0.771685302,5.8983078,8.833703041
0.570352818,-0.238085851,5.682953835,8.460422516
0.580352818,-0.238085851,5.682953835,8.460422516
0.590352818,-0.238085851,5.682953835,8.460422516
0.600352818,-0.238085851,5.682953835,8.460422516
0.610352818,-0.084945202,4.319045067,5.555535793
0.620352818,-0.635294437,3.979264021,5.263611794
0.630352818,-1.549352646,3.462414265,5.053043365
0.640352818,-1.549352646,3.462414265,5.053043365
0.650352818,-4.746163845,1.686939955,3.985844374
0.660352818,-6.330212116,1.275374413,2.875574589
0.670352818,-7.722835064,1.060020447,1.171884894
0.680352818,-7.722835064,1.060020447,1.171884894
0.690352818,-8.220541954,0.294317186,-1.445863128
0.700352818,-8.33539772,-0.145962179,-2.742773056
0.710352818,-9.732806206,-1.15094769,-4.427320004
0.720352818,-11.13500023,-1.045663476,-4.006183147
0.730352818,-12.08255768,-0.935593665,-2.795415163
0.740352818,-11.92941761,-1.275374413,-1.532004714
0.750352818,-10.83829021,-2.098505497,-0.661017239
0.760352818,-9.503094673,-3.175275564,-0.096311115
0.770352818,-8.718249321,-4.304687977,-0.775872767
0.780352818,-8.718249321,-4.304687977,-0.775872767
0.790352818,-8.718249321,-4.304687977,-0.775872767
0.800352818,-11.71884918,-3.649054527,-3.034697294
0.810352818,-12.03470135,-3.457628727,-2.680559635
0.820352818,-11.84327602,-4.003192425,-2.264208317
0.830352818,-11.84327602,-4.003192425,-2.264208317
0.840352818,-11.84327602,-4.003192425,-2.264208317
0.850352818,-16.02114487,-8.539983749,-0.952941597
0.860352818,-16.02114487,-8.539983749,-0.952941597
0.870352818,-19.66301918,-13.59841156,0.640678287
0.880352818,-22.19462585,-17.03450394,2.550150633
0.890352818,-25.14258385,-21.22673035,5.895316601
0.900352818,-32.69433212,-31.0229454,15.56710625
0.910352818,-32.69433212,-31.0229454,15.56710625
0.920352818,-32.69433212,-31.0229454,15.56710625
0.930352818,-32.69433212,-31.0229454,15.56710625
0.940352818,-7.646264553,-66.32665253,30.02453995
0.950352818,11.60160065,-71.52864838,36.97329712
0.960352818,29.39463043,-70.65766144,40.09353638
0.970352818,59.28577042,-70.84908295,33.1543541
0.980352818,65.87081909,-74.71588898,40.72045898
0.990352818,71.17810059,-77.22834778,56.64708328
1.000352818,77.99764252,-80.05666351,69.67839813
1.010352818,74.87261963,-73.68697357,69.12805176
1.020352818,69.20641327,-63.10591125,49.54040146
1.030352818,71.21638489,-39.28775406,0.200398892
1.040352818,64.71747589,-20.15953064,-16.41057587
1.050352818,55.09833145,-7.233502865,-25.35494614
1.060352818,43.7467804,-0.189032987,-26.81935501
1.070352818,32.17509079,4.036691666,-23.34976196
1.080352818,23.45564461,4.936393261,-17.85105515
1.090352818,23.45564461,4.936393261,-17.85105515
1.100352818,12.72144127,1.093519926,-1.158724308
1.110352818,11.99402332,-0.514456868,0.745962441
1.120352818,12.42473125,-1.887937069,0.707677305
1.130352818,12.33380413,-3.247060299,-0.058025949
1.140352818,11.09910774,-3.845266104,-0.177667081
1.150352818,11.09910774,-3.845266104,-0.177667081
1.160352818,11.09910774,-3.845266104,-0.177667081
1.170352818,11.09910774,-3.845266104,-0.177667081
1.180352818,11.09910774,-3.845266104,-0.177667081
1.190352818,6.342176437,-2.175075769,8.642276764
1.200352818,7.17009306,-1.749153376,7.977072716
1.210352818,8.801998138,-1.768295884,6.584449768
1.220352818,8.801998138,-1.768295884,6.584449768
1.230352818,11.37189007,-1.663011789,5.402395248
1.240352818,11.17567825,-1.409372568,5.991029739
1.250352818,11.14217854,-1.213161111,6.976872444
1.260352818,11.97009563,-1.122233868,8.417351723
1.270352818,13.45843124,-1.050449133,9.757332802
1.280352818,15.35354614,-0.921236694,10.81496048
1.290352818,15.35354614,-0.921236694,10.81496048
1.300352818,24.19741821,0.270388961,11.80558872
1.310352818,27.35594559,-0.098105729,13.86341572
1.320352818,29.35155869,-0.514456868,17.11286926
1.330352818,29.97369194,-0.930808008,20.32882309
1.340352818,28.54757118,-1.217946768,21.03231239
1.350352818,22.02952194,-0.155533478,17.56271935
1.360352818,19.86162376,0.605384111,14.60040569
1.370352818,17.67937088,0.4953143,10.81496048
1.380352818,17.67937088,0.4953143,10.81496048
1.390352818,11.20439243,1.074377418,4.684548378
1.400352818,8.012366295,1.964507341,3.272783279
1.410352818,5.954539299,2.356930256,2.540579557
1.420352818,5.954539299,2.356930256,2.540579557
1.430352818,5.954539299,2.356930256,2.540579557
1.440352818,4.614558697,-0.284745902,-0.431306273
1.450352818,3.963710785,-1.576870084,0.765105069
1.460352818,1.853241086,-2.610569477,3.325425386
1.470352818,-1.357926846,-2.70149684,7.106084824
1.480352818,-7.96690321,-3.318845034,14.38505173
1.490352818,-11.24507046,-2.940778971,15.28953838
1.500352818,-13.02054405,-2.026720762,13.76291752
1.510352818,-12.83390427,-2.060220242,10.55174923
1.520352818,-11.62792206,-2.533999205,6.632306099
1.530352818,-10.29272652,-2.227717876,3.172284603
1.540352818,-10.29272652,-2.227717876,3.172284603
1.550352818,-6.540780544,-0.016749758,-1.847857237
1.560352818,-5.971288681,0.557527661,-2.469991207
1.570352818,-5.109872818,1.002592683,-2.345564365
1.580352818,-4.090530396,0.849452019,-1.340578914
1.590352818,-3.253042459,0.552742004,-0.144167557
1.600352818,-3.253042459,0.552742004,-0.144167557
1.610352818,-3.253042459,0.552742004,-0.144167557
1.620352818,-3.253042459,0.552742004,-0.144167557
1.630352818,-3.253042459,0.552742004,-0.144167557
1.640352818,-7.153343201,0.701097012,6.799803734
1.650352818,-7.80897665,0.648454964,5.411966801
1.660352818,-7.93818903,0.634097993,3.325425386
1.670352818,-7.93818903,0.634097993,3.325425386
1.680352818,-7.93818903,0.634097993,3.325425386
1.690352818,-6.358926296,-0.112462662,-4.996811867
1.700352818,-6.468996048,-0.169890404,-5.992226124
1.710352818,-6.971488953,-0.275174618,-6.408577442
1.720352818,-7.48833847,-0.538385093,-6.351149559
1.730352818,-7.708477974,-1.32801652,-5.733801365
1.740352818,-8.388039589,-2.591426849,-3.900899172
1.750352818,-8.392825127,-3.505485058,-3.082553864
1.760352818,-8.043473244,-4.883750916,-2.637488842
1.770352818,-7.93818903,-5.797809124,-2.359921217
1.780352818,-8.139185905,-6.257231236,-2.168495417
1.790352818,-8.43589592,-7.334001541,-2.288136721
1.800352818,-8.43589592,-7.334001541,-2.288136721
1.810352818,-8.43589592,-7.334001541,-2.288136721
1.820352818,-8.43589592,-7.334001541,-2.288136721
1.830352818,-16.96870232,-17.38385582,0.918245673
1.840352818,-18.33261108,-22.08814621,2.42572403
1.850352818,-18.33261108,-22.08814621,2.42572403
1.860352818,-23.94138718,-31.62115097,9.680762291
1.870352818,-31.74198914,-38.07698822,15.83031654
1.880352818,-33.9960289,-41.60400772,15.18904018
1.890352818,-31.4117794,-47.52863693,11.27438164
1.900352818,-25.45843697,-55.12345505,7.010372162
1.910352818,-14.13560009,-64.44589233,1.660020709
1.920352818,0.618544638,-75.24230957,-5.173880577
1.930352818,45.57489777,-110.665657,0.784247637
1.940352818,80.5675354,-125.716507,19.21855354
1.950352818,88.45906067,-110.6177979,29.46940613
1.960352818,66.0239563,-84.14360809,37.70550156
1.970352818,47.60879517,-73.31369019,45.74060059
1.980352818,41.04288864,-67.14978027,46.02295303
1.990352818,40.6983223,-45.38945389,47.68835831
2.000352818,39.71248245,-34.61696625,51.58865738
2.010352818,36.5826683,-24.5096817,46.88915253
2.020352818,36.5826683,-24.5096817,46.88915253
2.030352818,26.60938454,-16.23530197,19.10369873
2.040352818,20.47897339,-12.4115715,7.039085865
2.050352818,14.97548008,-9.152546883,-0.996012449
2.060352818,14.97548008,-9.152546883,-0.996012449
2.070352818,4.97826767,-4.405186653,-0.000598206
2.080352818,4.561916351,-4.85982275,3.957130432
2.090352818,5.547759533,-5.481956482,7.565506935
2.100352818,7.548159122,-6.180660725,9.934401512
2.110352818,9.562915802,-6.845865726,11.21216869
2.120352818,10.21376324,-6.774080753,11.39402294
2.130352818,9.127422333,-6.592226505,10.33160973
2.140352818,7.730013371,-6.319444656,9.039485931
2.150352818,6.3373909,-5.821737289,7.895716667
2.160352818,5.619544029,-5.190032482,6.87158823
2.170352818,5.897111416,-4.821537495,5.962316036
2.180352818,6.806384087,-4.835894585,5.330610752
2.190352818,6.806384087,-4.835894585,5.330610752
2.200352818,6.806384087,-4.835894585,5.330610752
2.210352818,6.806384087,-4.835894585,5.330610752
2.220352818,6.806384087,-4.835894585,5.330610752
2.230352818,14.57827187,-8.190631866,16.58166313
2.240352818,14.43948841,-8.090133667,17.84028816
2.250352818,14.43948841,-8.090133667,17.84028816
2.260352818,14.43948841,-8.090133667,17.84028816
2.270352818,20.33540344,-13.18206024,28.72284508
2.280352818,21.95773697,-15.56052589,30.40260696
2.290352818,22.07737732,-17.19721603,27.43550682
2.300352818,20.96710777,-17.71406555,21.73101616
2.310352818,19.78505325,-17.30728531,16.86401558
2.320352818,18.49292946,-15.69452381,14.47119331
2.330352818,18.40200233,-15.26381588,15.73460388
2.340352818,18.84228134,-15.50788403,17.55793381
2.350352818,18.6364994,-15.86680698,18.18964005
2.360352818,16.81795311,-16.02951813,16.28495216
2.370352818,13.83171082,-15.78545094,12.43250847
2.380352818,7.002595425,-13.16770267,3.047857761
2.390352818,3.150151014,-10.06660461,-0.795015335
2.400352818,0.029910283,-6.223731518,-2.886342287
2.410352818,0.029910283,-6.223731518,-2.886342287
2.420352818,-0.324227482,-1.122233868,-0.814157903
2.430352818,1.992024899,-0.921236694,1.502094388
2.440352818,1.992024899,-0.921236694,1.502094388
2.450352818,6.7202425,-2.46221447,5.622535229
2.460352818,6.011966705,-3.208775282,7.565506935
2.470352818,3.676572084,-3.9170506,9.412766457
2.480352818,0.345762879,-3.763910055,10.56132126
2.490352818,-3.238685369,-3.060420275,11.12602711
2.500352818,-5.794219971,-2.275574446,10.92502975
2.510352818,-6.468996048,-2.476571321,6.172883987
2.520352818,-6.5790658,-2.423929453,2.167299032
2.530352818,-6.5790658,-2.423929453,2.167299032
2.540352818,-7.29691267,-0.801595569,-2.771486759
2.550352818,-7.445267677,-0.476171702,-2.938984394
2.560352818,-7.445267677,-0.476171702,-2.938984394
2.570352818,-7.445267677,-0.476171702,-2.938984394
2.580352818,-6.119643688,-1.32801652,1.310668588
2.590352818,-6.119643688,-1.32801652,1.310668588
2.600352818,-6.25842762,-1.730010748,2.18644166
2.610352818,-6.641279221,-1.907079697,2.397010088
2.620352818,-6.971488953,-2.012363911,2.420938253
2.630352818,-7.081558704,-2.088934183,2.272583246
2.640352818,-6.861418724,-2.605783939,1.004387259
2.650352818,-6.909275532,-2.639283419,0.066400826
2.660352818,-6.9619174,-2.677568436,-0.91465646
2.670352818,-6.952346325,-2.68713975,-1.646860242
2.680352818,-7.028916359,-2.696711063,-2.039283037
2.690352818,-7.41176796,-2.624926329,-2.087139606
2.700352818,-8.383254051,-2.409572363,-1.216152072
2.710352818,-8.392825127,-2.505285263,-0.512662232
2.720352818,-8.258827209,-2.663211584,0.138185501
2.730352818,-8.024331093,-2.868994236,0.87517488
2.740352818,-7.785048485,-3.103491068,1.334596872
2.750352818,-7.550551891,-3.266202927,1.372882009
2.760352818,-7.239484787,-3.366701365,1.449452281
2.770352818,-7.239484787,-3.366701365,1.449452281
2.780352818,-7.239484787,-3.366701365,1.449452281
2.790352818,-6.502495766,-3.567698479,-0.546161771
2.800352818,-6.765706062,-3.845266104,-0.976869822
2.810352818,-7.287341595,-4.472185612,-0.661017239
2.820352818,-7.732406139,-5.745167255,-0.464805812
2.830352818,-10.22094154,-7.544569969,0.420538574
2.840352818,-11.53699398,-9.291330338,0.994816005
2.850352818,-12.5994072,-12.01436234,1.090528965
2.860352818,-15.09751415,-14.54596901,1.67437768
2.870352818,-18.99303055,-18.28355789,2.727219582
2.880352818,-23.57767868,-24.65325165,3.378067255
2.890352818,-34.26881027,-44.90610123,11.49930763
2.900352818,-34.86222839,-59.46882248,23.14756775
2.910352818,-35.40300751,-69.21717834,36.92544174
2.920352818,-36.64249039,-72.00720978,43.15634918
2.930352818,-33.33560944,-74.7302475,33.40799332
2.940352818,-18.16989899,-88.89096832,12.35593796
2.950352818,8.045866013,-114.331459,-6.059225082
2.960352818,8.045866013,-114.331459,-6.059225082
2.970352818,97.585289,-121.5338516,41.15116501
2.980352818,69.99604797,-84.98588562,66.20401764
2.990352818,57.38108444,-64.16353607,86.62436676
3.000352818,47.16851807,-46.85864639,78.00541687
3.010352818,40.45425415,-32.61177826,49.4446907
3.020352818,40.45425415,-32.61177826,49.4446907
3.030352818,19.7036972,-13.54576874,4.430909157
3.040352818,19.07677841,-11.60279655,-1.60378933
3.050352818,22.08216286,-12.64606762,-1.216152072
3.060352818,21.7854538,-12.32542896,6.302096844
3.070352818,17.4688015,-10.47817039,16.29930878
3.080352818,13.20957756,-9.382257462,23.4299202
3.090352818,7.706085205,-9.253045082,20.11825371
3.100352818,6.088537216,-9.018548965,12.73878956
3.110352818,5.327619553,-8.578269005,5.589035511
3.120352818,4.796412945,-8.066205025,0.836889744
3.130352818,4.32263422,-7.439285755,-0.632303357
3.140352818,4.00199604,-6.955935478,0.769890666
3.150352818,4.00199604,-6.955935478,0.769890666
3.160352818,3.389433384,-5.888736725,10.49910736
3.170352818,3.853640795,-6.262016773,12.50429249
3.180352818,4.590630054,-6.606583118,13.03549957
3.190352818,5.471189022,-6.707081795,11.88215923
3.200352818,6.811169624,-6.893722057,10.06839943
3.210352818,8.213363647,-7.329215527,8.75713253
3.220352818,8.782855988,-7.434499741,9.479764938
3.230352818,8.859425545,-7.453642368,11.37966633
3.240352818,9.59641552,-7.893921852,13.88734436
3.250352818,10.8550396,-8.71705246,16.92144394
3.260352818,12.08495045,-9.789037704,19.96990013
3.270352818,13.05643654,-11.04766178,22.161726
3.280352818,13.05643654,-11.04766178,22.161726
3.290352818,13.05643654,-11.04766178,22.161726
3.300352818,13.05643654,-11.04766178,22.161726
3.310352818,13.05643654,-11.04766178,22.161726
3.320352818,14.41555977,-16.1013031,24.19562531
3.330352818,14.41555977,-16.1013031,24.19562531
3.340352818,14.41555977,-16.1013031,24.19562531
3.350352818,10.92203903,-19.3507576,25.7892437
3.360352818,8.136793137,-17.80499268,20.76431656
3.370352818,6.792026997,-15.96251965,16.06481361
3.380352818,6.284748554,-14.02911949,13.23649693
3.390352818,6.035895348,-11.61236858,11.45623684
3.400352818,6.222535133,-9.391828537,10.38425159
3.410352818,6.222535133,-9.391828537,10.38425159
3.420352818,5.260620594,-5.831308842,4.842474937
3.430352818,3.949353695,-4.706682205,2.387438774
3.440352818,1.987239242,-3.184846878,-0.373878539
3.450352818,0.235693038,-1.308874011,-2.307279348
3.460352818,-1.147358418,0.428315252,-3.02512598
3.470352818,-3.396611691,3.572484255,-1.551147223
3.480352818,-3.343969584,4.644468784,1.281954765
3.490352818,-2.281556368,4.472185612,5.823532104
3.500352818,-0.640080035,3.419343472,9.862616539
3.510352818,1.307677627,1.380658627,12.73878956
3.520352818,2.623729944,-1.074377418,14.27019596
3.530352818,2.800798893,-3.572484255,14.41376495
3.540352818,2.800798893,-3.572484255,14.41376495
3.550352818,2.800798893,-3.572484255,14.41376495
3.560352818,2.800798893,-3.572484255,14.41376495
3.570352818,-12.76211929,-9.899106979,5.19182682
3.580352818,-16.17906952,-8.31027317,1.664806366
3.590352818,-18.23689842,-6.458228111,-1.575075507
3.600352818,-18.23689842,-6.458228111,-1.575075507
3.610352818,-15.40858173,-3.175275564,-5.489733219
3.620352818,-12.05862999,-3.64426899,-5.126024246
3.630352818,-8.804390907,-4.338187218,-4.255036831
3.640352818,-6.5790658,-4.754538536,-3.173480988
3.650352818,-5.286941528,-5.027320385,-1.460219979
3.660352818,-4.999803066,-4.878965378,0.449252456
3.670352818,-4.999803066,-4.878965378,0.449252456
3.680352818,-7.914260864,-3.443271875,4.445266247
3.690352818,-8.713463783,-3.098705292,3.861417532
3.700352818,-9.316454887,-2.758924484,2.674577475
3.710352818,-9.574879646,-2.634497643,1.095314622
3.720352818,-9.421739578,-2.624926329,-0.464805812
3.730352818,-8.723034859,-2.696711063,-3.053839922
3.740352818,-8.560322762,-2.845066071,-3.632902861
3.750352818,-8.560322762,-2.845066071,-3.632902861
3.760352818,-8.560322762,-2.845066071,-3.632902861
3.770352818,-8.904889107,-3.476771355,-3.934398651
3.780352818,-8.904889107,-3.476771355,-3.934398651
3.790352818,-8.124829292,-5.008177757,-2.714059114
3.800352818,-8.124829292,-5.008177757,-2.714059114
3.810352818,-8.124829292,-5.008177757,-2.714059114
3.820352818,-8.019545555,-8.563912392,-0.273379982
3.830352818,-9.158528328,-9.631111145,0.171685025
3.840352818,-11.12064362,-10.99023438,0.607178748
3.850352818,-13.69053459,-12.6125679,0.717248559
3.860352818,-13.69053459,-12.6125679,0.717248559
3.870352818,-22.00798607,-25.34716988,7.23529768
3.880352818,-26.0901413,-31.46800995,12.35115242
3.890352818,-29.90908623,-37.79463196,19.23291016
3.900352818,-31.79941559,-45.03531647,24.74118805
3.910352818,-32.55554962,-51.29493713,26.05723953
3.920352818,-23.8313179,-64.37889099,13.24128246
3.930352818,-7.244270325,-76.45307922,4.459623337
3.940352818,15.92303848,-93.09276581,-2.197209358
3.950352818,47.91986084,-120.002449,4.086342812
3.960352818,89.27741241,-132.1005554,39.8686142
3.970352818,99.25069427,-108.0096207,77.368927
3.980352818,64.07620239,-66.94878387,81.27880096
3.990352818,43.56492615,-50.77330399,61.4423027
4.000352818,47.84807968,-40.28316879,50.01896667
4.010352818,47.84807968,-40.28316879,50.01896667
4.020352818,42.60779572,-17.13978767,25.51646233
4.030352818,34.69712448,-9.449256897,16.34716606
4.040352818,26.65723991,-4.390829563,7.41236639
4.050352818,26.65723991,-4.390829563,7.41236639
4.060352818,26.65723991,-4.390829563,7.41236639
4.070352818,10.43390274,0.811166883,-1.18743825
4.080352818,7.098308563,0.227318153,2.933002472
4.090352818,4.686343193,-0.279960245,6.804589272
4.100352818,4.289134502,-1.203589797,9.235696793
4.110352818,5.519045353,-2.433500528,10.09232807
4.120352818,5.519045353,-2.433500528,10.09232807
4.130352818,6.916453838,-3.591626883,8.474779129
4.140352818,5.69611454,-3.69212532,8.632705688
4.150352818,4.231706619,-3.716053486,9.436694145
4.160352818,2.800798893,-3.50069952,10.23111153
4.170352818,2.24566412,-3.572484255,10.82931709
4.180352818,3.748356581,-4.467400074,10.99681473
4.190352818,5.36111927,-4.87417984,10.59482002
4.200352818,5.36111927,-4.87417984,10.59482002
4.210352818,5.36111927,-4.87417984,10.59482002
4.220352818,10.91246796,-6.022734642,10.70010471
4.230352818,11.12782192,-6.099305153,11.94437218
4.240352818,10.52483082,-6.147161484,13.43749332
4.250352818,8.529216766,-6.185446739,15.00718498
4.260352818,7.825726509,-5.984449387,14.66740417
4.270352818,7.820940971,-5.946164131,13.54756355
4.280352818,8.648857117,-5.864808083,11.94915771
4.290352818,10.24726295,-5.520241737,10.36989498
4.300352818,12.0227375,-5.060820103,9.436694145
4.310352818,15.38704586,-4.768895626,11.46580791
4.320352818,15.38704586,-4.768895626,11.46580791
4.330352818,17.24866295,-5.5154562,16.83530235
4.340352818,17.16252136,-5.816951752,18.52942085
4.350352818,16.11446381,-5.324030399,18.7495594
4.360352818,14.16670609,-4.146761417,17.91207123
4.370352818,11.49153042,-1.682154298,16.3136673
4.380352818,11.49153042,-1.682154298,16.3136673
4.390352818,11.49153042,-1.682154298,16.3136673
4.400352818,11.08475113,-1.021735311,19.41954994
4.410352818,10.12762165,-0.815952539,19.56790543
4.420352818,8.821140289,-0.581455886,18.52463531
4.430352818,7.66779995,-0.20817557,16.28016663
4.440352818,7.66779995,-0.20817557,16.28016663
4.450352818,5.050052166,-0.179461703,9.742975235
4.460352818,3.221935749,0.102891371,8.369495392
4.470352818,1.345962763,0.54317075,7.153941631
4.480352818,-0.094516493,0.825523794,6.177670002
4.490352818,-0.888933599,0.835095108,5.33539629
4.500352818,-0.888933599,0.835095108,5.33539629
4.510352818,-2.434697151,0.413958311,3.392424345
4.520352818,-2.434697151,0.413958311,3.392424345
4.530352818,-3.119044304,-0.346959293,3.263211966
4.540352818,-3.62153697,-0.509671211,3.535993576
4.550352818,-4.353740692,-0.710668325,3.607778311
4.560352818,-5.191228867,-0.973878801,3.401995659
4.570352818,-7.110272408,-1.074377418,2.152942181
4.580352818,-7.110272408,-1.074377418,2.152942181
4.590352818,-7.110272408,-1.074377418,2.152942181
4.600352818,-7.110272408,-1.074377418,2.152942181
4.610352818,-8.4646101,-1.093519926,-0.81894356
4.620352818,-8.254041672,-1.217946768,-1.737787485
4.630352818,-8.254041672,-1.217946768,-1.737787485
4.640352818,-8.254041672,-1.217946768,-1.737787485
4.650352818,-6.392425537,-1.428515077,-4.86281395
4.660352818,-6.56470871,-1.208375454,-5.149952412
4.670352818,-6.856633186,-0.993021369,-5.178666592
4.680352818,-7.191628456,-0.849452019,-4.867599487
4.690352818,-7.555337429,-0.748953462,-4.494318962
4.700352818,-7.41176796,-0.662811875,-4.020540237
4.710352818,-6.985845566,-0.830309451,-3.618546009
4.720352818,-6.669992924,-0.906879783,-3.398406267
4.730352818,-6.392425537,-0.973878801,-3.283550978
4.740352818,-6.12921524,-1.146162033,-3.144767046
4.750352818,-5.808577061,-1.447657704,-2.986840963
4.760352818,-5.315655708,-2.088934183,-2.824128866
4.770352818,-5.157729149,-2.280359983,-2.637488842
4.780352818,-5.157729149,-2.280359983,-2.637488842
4.790352818,-5.157729149,-2.280359983,-2.637488842
4.800352818,-3.927818298,-3.64426899,-1.144367456
4.810352818,-3.367897987,-4.204189301,-0.460020155
4.820352818,-3.367897987,-4.204189301,-0.460020155
4.830352818,-3.367897987,-4.204189301,-0.460020155
4.840352818,-3.367897987,-4.204189301,-0.460020155
4.850352818,-3.367897987,-4.204189301,-0.460020155
4.860352818,-0.482153773,-12.9954195,-0.081954174
4.870352818,-1.960918188,-15.71366596,1.655235052
4.880352818,-5.071587563,-16.88614845,4.545764923
4.890352818,-11.10150051,-19.79103661,15.50967789
4.900352818,-13.55175114,-23.89711952,20.51546288
4.910352818,-19.25624084,-26.50051117,25.6887455
4.920352818,-28.63131905,-27.50071144,31.13480949
4.930352818,-39.22673798,-28.71626472,32.80978775
4.940352818,-44.63451767,-32.89891815,32.25943756
4.950352818,-35.83371735,-50.81158829,16.23231125
4.960352818,-24.57309151,-62.49813461,2.511865616
4.970352818,2.934797049,-83.44969177,-9.131608963
4.980352818,48.51807022,-113.1541901,-27.06342316
4.990352818,104.3569794,-135.7376556,-38.75954056
5.000352818,136.3825226,-124.1468201,-35.11287689
5.010352818,117.9721375,-102.7166977,-5.37487793
5.020352818,16.41117477,-32.09014511,104.1589737
5.030352818,16.41117477,-32.09014511,104.1589737
5.040352818,16.41117477,-32.09014511,104.1589737
5.050352818,50.60461044,-27.85006332,44.64468765
5.060352818,45.6179657,-22.92084885,27.03351212
5.070352818,28.74856758,-18.87219238,22.12822533
5.080352818,8.428717613,-7.668996811,0.114257284
5.090352818,9.309276581,-5.539384365,-9.461818695
5.100352818,12.42951679,-4.649254322,-14.06560993
5.110352818,14.37248898,-4.218546391,-14.02253914
5.120352818,14.17627811,-4.17069006,-10.32802105
5.130352818,12.72144127,-4.127619267,-3.9200418
5.140352818,10.98425198,-4.055834293,3.401995659
5.150352818,10.98425198,-4.055834293,3.401995659
5.160352818,10.98425198,-4.055834293,3.401995659
5.170352818,10.98425198,-4.055834293,3.401995659
5.180352818,7.658228874,-3.744767427,16.88794327
5.190352818,7.768298626,-4.022335052,15.61017704
5.200352818,8.251648903,-4.505684853,13.93041515
5.210352818,8.979066849,-4.338187218,12.19322586
5.220352818,9.917053223,-3.9170506,11.95394325
5.230352818,11.24267673,-3.873979807,11.26002502
5.240352818,11.88873959,-3.658625841,10.45125103
5.250352818,11.6207428,-3.127419233,10.11147022
5.260352818,11.37189007,-2.577069998,10.35075283
5.270352818,11.37189007,-2.577069998,10.35075283
5.280352818,12.51087284,-2.730210543,14.43290806
5.290352818,12.29073334,-2.873780012,16.49552155
5.300352818,11.51067352,-2.979064226,18.21356773
5.310352818,11.00818062,-2.787638426,18.58206177
5.320352818,11.44367409,-2.711068153,17.7206459
5.330352818,12.31944752,-2.912065268,15.96431446
5.340352818,12.83629704,-2.66799736,13.38485146
5.350352818,11.91745281,-1.868794441,12.66221905
5.360352818,10.38604641,-0.729810894,12.0975132
5.370352818,8.821140289,0.232103795,11.61416245
5.380352818,7.658228874,0.6867401,10.82931709
5.390352818,6.729813576,1.021735311,9.647262573
5.400352818,6.729813576,1.021735311,9.647262573
5.410352818,6.729813576,1.021735311,9.647262573
5.420352818,6.729813576,1.021735311,9.647262573
5.430352818,6.729813576,1.021735311,9.647262573
5.440352818,3.001796007,3.620340586,4.249054909
5.450352818,2.255235434,3.471985579,4.000201225
5.460352818,1.312463164,3.428914785,3.44985199
5.470352818,1.312463164,3.428914785,3.44985199
5.480352818,-0.22372891,2.615355253,0.032901313
5.490352818,-0.22372891,2.615355253,0.032901313
5.500352818,-1.013360381,3.955335855,0.300897449
5.510352818,-1.826920033,4.68275404,0.090329058
5.520352818,-2.683550596,5.304887772,-0.249451756
5.530352818,-3.611965895,5.994020939,-0.292522579
5.540352818,-3.549752474,5.615954876,-0.148953214
5.550352818,-3.071187973,5.089533806,0.334396958
5.560352818,-2.439482689,4.740181446,0.750748098
5.570352818,-2.137987137,4.591826439,0.994816005
5.580352818,-2.176272154,4.821537495,1.152742267
5.590352818,-2.013560295,5.113461971,1.028315544
5.600352818,-1.568495274,4.984249592,1.234098315
5.610352818,-1.568495274,4.984249592,1.234098315
5.620352818,-1.568495274,4.984249592,1.234098315
5.630352818,-0.506081998,4.256831646,0.645463884
5.640352818,-0.285942316,3.476771355,0.540179729
5.650352818,-0.448654234,2.773281336,0.554536641
5.660352818,-0.448654234,2.773281336,0.554536641
5.670352818,-0.448654234,2.773281336,0.554536641
5.680352818,-0.448654234,2.773281336,0.554536641
5.690352818,-1.84606266,1.433300734,-3.451048374
5.700352818,-1.932204247,1.356730461,-4.891527653
5.710352818,-1.621137381,1.256231904,-6.087938786
5.720352818,-1.621137381,1.256231904,-6.087938786
5.730352818,-2.583052158,-0.035892341,-6.073582172
5.740352818,-3.21954298,0.25603202,-3.762115479
5.750352818,-4.5930233,0.820738196,-2.335993052
5.760352818,-5.58843708,0.763310432,-1.508076429
5.770352818,-6.425925255,0.619741082,-1.393221021
5.780352818,-6.880561352,0.461814761,-1.512862086
5.790352818,-6.631708145,-0.002392823,-1.498505235
5.800352818,-6.05264473,-0.562313318,-1.3310076
5.810352818,-5.550152302,-1.337587833,-1.115653515
5.820352818,-5.42572546,-1.739582062,-0.780658364
5.830352818,-5.665007591,-1.897508383,-0.474377096
5.840352818,-6.105287075,-2.069791555,-0.168095797
5.850352818,-7.636693478,-2.778067112,0.45882374
5.860352818,-8.813961983,-2.79720974,1.191027522
5.870352818,-9.895518303,-2.849851847,1.966302037
5.880352818,-10.63250732,-3.385843992,2.684148788
5.890352818,-11.249856,-3.979264021,3.047857761
5.900352818,-11.83849049,-4.601397991,3.401995659
5.910352818,-12.05862999,-5.582455158,3.306282759
5.920352818,-12.05862999,-5.582455158,3.306282759
5.930352818,-12.05862999,-5.582455158,3.306282759
5.940352818,-12.05862999,-5.582455158,3.306282759
5.950352818,-16.1264286,-20.46102715,3.239283562
5.960352818,-17.64347839,-26.11765862,3.937987804
5.970352818,-19.50509453,-32.20021439,3.291925669
5.980352818,-19.50509453,-32.20021439,3.291925669
5.990352818,-19.50509453,-32.20021439,3.291925669
6.000352818,-19.50509453,-32.20021439,3.291925669
6.010352818,-19.50509453,-32.20021439,3.291925669
6.020352818,17.78465462,-87.96733856,2.37786746
6.030352818,40.70789337,-95.22716522,7.268796921
6.040352818,61.39624023,-93.59046936,15.69153309
6.050352818,56.72544861,-68.30312347,32.68535995
6.060352818,47.01537704,-56.84150314,42.24707794
6.070352818,49.37469864,-51.97449875,45.57788849
6.080352818,53.60520935,-45.45166779,44.12783813
6.090352818,52.99264526,-36.2440834,43.84069824
6.100352818,47.40779877,-27.02693176,40.92145538
6.110352818,32.16551971,-16.32144356,25.75574493
6.120352818,25.64268303,-13.68455315,17.57707787
6.130352818,20.69911194,-11.55972576,10.42253685
6.140352818,20.69911194,-11.55972576,10.42253685
6.150352818,14.66919899,-8.994620323,4.411766529
6.160352818,14.66919899,-8.994620323,4.411766529
6.170352818,14.66919899,-8.994620323,4.411766529
6.180352818,14.11884975,-8.702695847,13.20778275
6.190352818,14.52084446,-8.243273735,14.05005646
6.200352818,14.13799286,-7.429714203,13.8921299
6.210352818,13.3770752,-6.764509678,13.05464172
6.220352818,12.37687492,-6.056233883,11.74816132
6.230352818,11.29053402,-5.271388054,10.1832552
6.240352818,10.60618591,-4.496113777,8.58006382
6.250352818,11.27139091,-4.740181446,9.321838379
6.260352818,11.98923779,-4.835894585,10.60439205
6.270352818,12.63051414,-4.792823792,11.78644657
6.280352818,13.52064419,-5.027320385,12.23629665
6.290352818,14.61177158,-5.601597786,12.10708427
6.300352818,16.08096504,-6.563512325,11.82473087
6.310352818,16.52602959,-7.022934437,13.09771252
6.320352818,17.15294838,-8.013563156,15.81117344
6.330352818,18.02872276,-9.305686951,19.11805534
6.340352818,18.91885185,-10.61695385,21.19502449
6.350352818,19.62234116,-11.77029419,20.95574188
6.360352818,20.06262207,-12.9379921,19.39562225
6.370352818,19.6654129,-14.91924953,16.26102448
6.380352818,19.6654129,-14.91924953,16.26102448
6.390352818,19.6654129,-14.91924953,16.26102448
6.400352818,19.6654129,-14.91924953,16.26102448
6.410352818,13.02772331,-13.79940796,22.24786758
6.420352818,10.48176003,-11.82772255,21.41516495
6.430352818,10.48176003,-11.82772255,21.41516495
6.440352818,10.48176003,-11.82772255,21.41516495
6.450352818,10.48176003,-11.82772255,21.41516495
6.460352818,9.323633194,-9.190832138,6.278168201
6.470352818,7.21794939,-8.224131584,3.794418573
6.480352818,5.021338463,-6.793223381,4.000201225
6.490352818,2.925225735,-5.429314613,4.818546772
6.500352818,2.925225735,-5.429314613,4.818546772
6.510352818,-1.731207132,-3.93140769,2.368296146
6.520352818,-2.779263496,-3.385843992,1.325025558
6.530352818,-3.76510644,-2.548356056,0.736391187
6.540352818,-4.803591251,-1.610369682,0.58803618
6.550352818,-5.779862881,-0.792024314,0.68374908
6.560352818,-6.153143406,0.222532511,1.229312658
6.570352818,-6.028716564,0.150747821,1.650449395
6.580352818,-5.995217323,-0.055034921,2.263011932
6.590352818,-6.06700182,-0.30388847,2.746362209
6.600352818,-6.157928944,-0.63888365,2.669791937
6.610352818,-6.473781586,-0.854237676,1.951945066
6.620352818,-7.464410305,-0.763310432,0.430109859
6.630352818,-7.44048214,-0.753739119,-0.038883369
6.640352818,-7.153343201,-1.060020447,-0.632303357
6.650352818,-6.837490559,-1.447657704,-0.948155999
6.660352818,-6.837490559,-1.447657704,-0.948155999
6.670352818,-6.736992359,-1.983649969,-0.718445003
6.680352818,-6.856633186,-2.285145521,-0.598803878
6.690352818,-6.856633186,-2.285145521,-0.598803878
6.700352818,-6.856633186,-2.285145521,-0.598803878
6.710352818,-5.990431309,-2.859423161,-1.216152072
6.720352818,-5.583651543,-3.022135019,-1.225723386
6.730352818,-5.564508915,-3.122633457,-1.034297585
6.740352818,-5.789434433,-3.390629768,-0.895513892
6.750352818,-5.789434433,-3.390629768,-0.895513892
6.760352818,-8.775676727,-3.026920557,-0.996012449
6.770352818,-10.1587286,-2.222932339,-0.661017239
6.780352818,-10.87657547,-1.859223247,-0.512662232
6.790352818,-10.74257755,-2.098505497,-0.976869822
6.800352818,-9.976874352,-2.533999205,-1.890928149
6.810352818,-8.928817749,-2.935993433,-2.96291256
6.820352818,-7.019345284,-4.118047714,-4.757529736
6.830352818,-6.488138676,-4.821537495,-4.84845686
6.840352818,-5.803791523,-5.974878311,-4.479962349
6.850352818,-5.803791523,-5.974878311,-4.479962349
6.850352818,-5.339583874,-7.424928665,-3.982254982
6.870352818,-6.847062111,-10.01874828,-0.986441135
6.880352818,-6.847062111,-10.01874828,-0.986441135
6.890352818,-6.847062111,-10.01874828,-0.986441135
6.900352818,-6.847062111,-10.01874828,-0.986441135
6.910352818,-19.34716797,-20.14995956,5.593821049
6.920352818,-24.66401863,-25.65345192,9.843474388
6.930352818,-29.29652405,-33.92304611,16.26581001
6.940352818,-32.51726151,-45.05924225,23.11406898
6.950352818,-32.51726151,-45.05924225,23.11406898
6.960352818,-38.14996719,-66.89614105,42.61078644
6.970352818,-33.08197021,-72.64369965,32.33122253
6.980352818,-18.72503281,-81.97092438,14.04048538
6.990352818,6.538387775,-97.3328476,-5.063810825
7.000352818,47.14458847,-122.4096298,-23.03869438
7.010352818,47.14458847,-122.4096298,-23.03869438
7.020352818,99.04012299,-100.3382339,73.99983215
7.030352818,51.77709198,-61.88557053,115.3143082
7.040352818,37.34837341,-41.05844498,119.6501083
7.050352818,45.51268387,-39.38346863,70.69295502
7.060352818,52.36094284,-32.13321686,22.85564423
7.070352818,43.26821518,-20.80559349,1.095314622
7.080352818,21.35474586,-2.026720762,-12.34277725
7.090352818,21.35474586,-2.026720762,-12.34277725
7.100352818,21.35474586,-2.026720762,-12.34277725
7.110352818,23.3790741,-4.835894585,5.411966801
7.120352818,18.02872276,-4.051048756,17.27079582
7.130352818,13.04207993,-3.270988464,24.52104759
7.140352818,13.04207993,-3.270988464,24.52104759
7.150352818,9.381061554,-5.52981329,11.1690979
7.160352818,10.02233791,-5.788238049,4.301696777
7.170352818,10.02233791,-5.788238049,4.301696777
7.180352818,7.844869137,-4.02712059,-3.029911757
7.190352818,6.17946434,-3.251846075,-2.345564365
7.200352818,6.17946434,-3.251846075,-2.345564365
7.210352818,3.748356581,-2.447857618,8.326424599
7.220352818,4.844269276,-2.801995277,11.55673504
7.230352818,6.748956203,-3.538984776,13.68156147
7.240352818,8.892925262,-4.161118507,14.56212044
7.250352818,10.91725349,-4.773681164,14.3946228
7.260352818,12.1232357,-5.266602516,13.91605854
7.270352818,11.83609676,-5.300102234,13.26521015
7.280352818,11.00818062,-5.151747227,13.25085354
7.290352818,10.17069244,-4.888536453,13.0833559
7.300352818,9.553344727,-4.405186653,12.6430769
7.310352818,9.80219841,-3.668197155,12.22672558
7.320352818,11.25224876,-3.242274761,11.84387398
7.320352818,11.25224876,-3.242274761,11.84387398
7.340352818,11.25224876,-3.242274761,11.84387398
7.350352818,19.50748634,-4.754538536,17.86900139
7.360352818,19.50270081,-5.405386448,20.18046761
7.370352818,17.770298,-5.525027275,20.67817497
7.380352818,15.5545435,-4.807180882,20.2426815
7.390352818,14.10927868,-4.113262177,19.44826508
7.400352818,14.00878048,-4.582255363,18.86441612
7.410352818,14.16192055,-4.898108006,18.40977859
7.420352818,13.92742443,-4.658825874,17.33300972
7.430352818,13.45843124,-3.9170506,15.41396523
7.440352818,12.86501122,-3.002992392,13.31785297
7.450352818,12.15673542,-2.328216314,10.86760235
7.460352818,9.122636795,-1.85443759,6.661019802
7.470352818,7.05523777,-1.47158587,6.101099491
7.480352818,4.997410297,-0.839880764,6.651448727
7.490352818,3.169293642,-0.413958311,7.101299286
7.500352818,2.015953064,-0.610169768,6.589235306
7.510352818,1.479960799,-1.189232826,5.545964718
7.520352818,0.920040309,-1.653440475,4.670191765
7.530352818,0.920040309,-1.653440475,4.670191765
7.540352818,-4.669593334,-1.591227055,2.894717216
7.550352818,-6.851847649,-1.15094769,2.688934565
7.560352818,-8.64167881,-1.040877819,2.79421854
7.570352818,-10.19222832,-0.571884632,3.282354355
7.580352818,-10.75693417,-0.007178468,3.985844374
7.590352818,-10.75693417,-0.007178468,3.985844374
7.600352818,-10.75693417,-0.007178468,3.985844374
7.610352818,-10.75693417,-0.007178468,3.985844374
7.620352818,-5.947360516,-2.160718918,2.48793745
7.630352818,-5.93778944,-2.46221447,1.406381488
7.640352818,-5.909075737,-2.409572363,0.272183567
7.650352818,-5.909075737,-2.409572363,0.272183567
7.660352818,-5.909075737,-2.409572363,0.272183567
7.670352818,-6.425925255,-2.208575249,-1.225723386
7.680352818,-6.191428661,-2.409572363,-1.125224829
7.690352818,-6.167500496,-2.677568436,-1.034297585
7.700352818,-6.138786316,-2.854637384,-1.244866014
7.710352818,-5.775077343,-2.98863554,-1.670788407
7.720352818,-5.272584915,-3.022135019,-2.240280151
7.730352818,-5.157729149,-3.151347399,-2.6087749
7.740352818,-4.794020176,-3.40498662,-3.125624657
7.750352818,-4.377668858,-3.711267948,-3.604189157
7.760352818,-4.377668858,-3.893122435,-4.19282341
7.770352818,-4.846662045,-3.802195072,-4.556532383
7.780352818,-4.846662045,-3.802195072,-4.556532383
7.790352818,-4.846662045,-3.802195072,-4.556532383
7.800352818,-4.846662045,-3.802195072,-4.556532383
7.810352818,-7.986045361,-5.280959606,-1.675574064
7.820352818,-8.569893837,-5.88395071,-0.665802896
7.830352818,-9.115457535,-6.668796539,0.391824722
7.840352818,-9.699306488,-7.310073376,1.205384374
7.850352818,-10.48893833,-8.535198212,2.669791937
7.860352818,-10.42672443,-9.717252731,3.569493294
7.870352818,-10.43629551,-10.9806633,4.545764923
7.880352818,-10.66600704,-12.49771309,5.3210392
7.890352818,-10.94836044,-14.42632771,6.115456581
7.900352818,-11.70449162,-16.59422493,6.756732941
7.910352818,-13.54218006,-26.72543526,5.34975338
7.920352818,-16.17428398,-35.03331757,3.607778311
7.930352818,-16.17428398,-35.03331757,3.607778311
7.940352818,-16.17428398,-35.03331757,3.607778311
7.950352818,-16.17428398,-35.03331757,3.607778311
7.960352818,-43.31367874,-53.87918854,28.27778053
7.970352818,-42.99304199,-60.11009598,23.71227455
7.980352818,-42.99304199,-60.11009598,23.71227455
7.990352818,-42.99304199,-60.11009598,23.71227455
8.000352818,75.10232544,-156.7801361,-16.0372963
8.010352818,123.1023483,-156.7801361,-10.60080242
8.020352818,131.6925812,-135.053299,26.48794937
8.030352818,98.5376358,-96.806427,97.31549835
8.040352818,98.5376358,-96.806427,97.31549835
8.050352818,98.5376358,-96.806427,97.31549835
8.060352818,36.49652863,-31.05644417,20.13261223
8.070352818,43.40221405,-19.49911118,-4.077968121
8.080352818,35.46282959,-9.6693964,-11.45743275
8.090352818,25.274189,-1.959721804,-11.76850033
8.100352818,21.10589218,-0.715453982,-6.580860615
8.110352818,21.78066826,-2.304288149,-2.010569334
8.120352818,20.46940041,-3.639483213,3.067000389
8.130352818,16.72224045,-4.371686935,8.857631683
8.140352818,11.94138145,-4.007977962,13.87777328
8.150352818,7.529016495,-3.572484255,16.03609848
8.160352818,4.839483738,-3.73998189,15.82553101
8.170352818,3.351148129,-4.706682205,10.59003448
8.180352818,3.944568157,-4.926821709,7.670791149
8.190352818,5.136193752,-5.094319344,5.569892883
8.200352818,5.136193752,-5.094319344,5.569892883
8.210352818,6.878168583,-5.20917511,5.249254704
8.220352818,7.127022266,-4.936393261,6.780661106
8.230352818,7.127022266,-4.936393261,6.780661106
8.240352818,7.127022266,-4.936393261,6.780661106
8.250352818,7.127022266,-4.936393261,6.780661106
8.260352818,6.70588541,-4.132404804,13.0259285
8.270352818,6.70588541,-4.132404804,13.0259285
8.280352818,8.447860718,-4.33340168,12.14536953
8.290352818,10.1084795,-4.481756687,11.41316605
8.300352818,10.1084795,-4.481756687,11.41316605
8.310352818,14.02792263,-5.18046093,10.72403336
8.320352818,14.20977688,-5.127819061,11.52323532
8.330352818,13.74078369,-5.142175674,12.69093323
8.340352818,13.09472179,-5.008177757,13.90170097
8.350352818,13.09472179,-5.008177757,13.90170097
8.360352818,13.09472179,-5.008177757,13.90170097
8.370352818,13.09472179,-5.008177757,13.90170097
8.380352818,13.93699551,-4.610969067,19.1754818
8.390352818,14.65005684,-4.893322468,20.06561279
8.400352818,14.65005684,-4.893322468,20.06561279
8.410352818,15.8368969,-4.907679081,20.99402809
8.420352818,15.39661694,-4.242474556,19.82633018
8.430352818,15.39661694,-4.242474556,19.82633018
8.440352818,15.39661694,-4.242474556,19.82633018
8.450352818,10.46261692,-1.337587833,13.13599777
8.460352818,9.180064201,-1.016949654,13.60020542
8.470352818,7.318448067,-1.012163997,13.83948803
8.480352818,5.112265587,-1.34237349,13.11207008
8.490352818,0.580259502,-1.581655741,8.192426682
8.500352818,-0.515653253,-1.232303619,5.569892883
8.510352818,-0.946361363,-1.10309124,3.669991732
8.520352818,-1.501496196,-1.10309124,2.449652195
8.530352818,-2.267199516,-1.012163997,2.004587173
8.540352818,-3.257827997,-0.926022351,1.975873351
8.550352818,-5.377869129,-1.189232826,2.650649309
8.560352818,-6.205785751,-1.15094769,2.995215654
8.570352818,-6.679564476,-1.069591761,3.148356438
8.580352818,-6.679564476,-1.069591761,3.148356438
8.590352818,-7.186842918,-1.256231904,2.846860647
8.600352818,-7.143772125,-1.47158587,2.478366137
8.610352818,-7.272984505,-1.639083505,1.975873351
8.620352818,-7.272984505,-1.639083505,1.975873351
8.630352818,-7.588837147,-1.605584025,0.544965386
8.640352818,-7.478767395,-1.931007862,0.042472601
8.650352818,-7.521838188,-2.179861546,-0.455234498
8.660352818,-7.665407181,-2.337787628,-0.948155999
8.670352818,-7.737192154,-2.543570518,-1.517647743
8.680352818,-7.584051132,-3.146561861,-2.986840963
8.690352818,-7.459624767,-3.208775282,-3.805186272
8.700352818,-7.301698208,-3.170490026,-4.168895245
8.710352818,-7.253841877,-3.270988464,-4.025325775
8.720352818,-7.320840836,-3.381058455,-4.039682865
8.730352818,-7.507481098,-3.237488985,-4.661816597
8.740352818,-7.655836105,-3.156133175,-5.365306377
8.750352818,-7.655836105,-3.156133175,-5.365306377
8.760352818,-9.479166985,-3.816552162,-5.55194664
8.770352818,-10.56550884,-3.605983734,-4.38424921
8.780352818,-11.39821053,-3.519842148,-3.226123095
8.790352818,-11.76191998,-3.9170506,-2.508276224
8.800352818,-11.76191998,-3.9170506,-2.508276224
8.810352818,-11.76191998,-3.9170506,-2.508276224
8.820352818,-9.21117115,-8.43948555,-0.670588553
8.830352818,-9.029315948,-9.071190834,0.396610349
8.840352818,-9.230313301,-9.12861824,1.53080833
8.850352818,-9.527023315,-8.95154953,2.449652195
8.860352818,-9.761520386,-8.817551613,3.181855917
8.870352818,-9.833304405,-8.630910873,3.77049017
8.880352818,-9.833304405,-8.630910873,3.77049017
8.890352818,-9.833304405,-8.630910873,3.77049017
8.900352818,-9.833304405,-8.630910873,3.77049017
8.910352818,-7.445267677,-12.92363548,2.61714983
8.920352818,-7.445267677,-12.92363548,2.61714983
8.930352818,-9.172885895,-18.77647972,-0.646660328
8.940352818,-9.172885895,-18.77647972,-0.646660328
8.950352818,-26.05185699,-32.38206863,13.59541988
8.960352818,-34.68516159,-35.85644913,24.06162643
8.970352818,-44.70630264,-36.770504,29.65126038
8.980352818,-51.99962616,-39.23032761,27.67957497
8.990352818,-47.63033295,-50.27559662,21.72144508
9.000352818,-47.63033295,-50.27559662,21.72144508
9.010352818,62.79843521,-137.0489197,-3.733401537
9.020352818,133.4871979,-147.3045502,-3.824328899
9.030352818,147.480423,-106.1288605,8.441280365
9.040352818,105.5629578,-75.85965729,58.59005737
9.050352818,39.09991837,-45.81058884,95.46823883
9.060352818,-13.49432373,-13.09591866,97.03314209
9.070352818,14.15234947,-24.18904495,38.2749939
9.080352818,34.49134064,-21.49951172,3.052643538
9.090352818,34.49134064,-21.49951172,3.052643538
9.100352818,28.78685188,-8.238488197,-14.7212429
9.110352818,19.67976952,-1.887937069,-11.56271744
9.120352818,15.70289898,-0.768096089,-6.997211456
9.130352818,15.70289898,-0.768096089,-6.997211456
9.140352818,15.70289898,-0.768096089,-6.997211456
9.150352818,15.70289898,-0.768096089,-6.997211456
9.160352818,8.701499939,-3.50069952,15.00718498
9.170352818,8.701499939,-3.50069952,15.00718498
9.180352818,4.748556614,-3.208775282,15.44746494
9.190352818,3.757927895,-3.376272678,13.31306744
9.200352818,3.757927895,-3.376272678,13.31306744
9.210352818,4.365705013,-3.902693748,4.938187599
9.220352818,5.380261898,-4.33340168,4.330410957
9.230352818,6.021538258,-4.462614059,4.880760193
9.240352818,6.390032768,-4.582255363,6.416952133
9.250352818,6.658029079,-4.66839695,8.398209572
9.260352818,6.686742783,-4.505684853,11.37966633
9.270352818,6.672386169,-4.213760853,11.96830082
9.280352818,6.978667259,-4.022335052,11.98265743
9.290352818,7.730013371,-4.213760853,11.49930763
9.300352818,8.92642498,-4.414757729,10.71924686
9.310352818,10.0893364,-4.630111694,10.06361389
9.320352818,10.94596672,-4.864608288,9.551549911
9.330352818,10.89811039,-5.419743061,9.652048111
9.340352818,9.960124016,-4.658825874,10.06839943
9.350352818,9.960124016,-4.658825874,10.06839943
9.360352818,8.902496338,-3.811766386,9.005986214
9.370352818,9.247062683,-3.8213377,8.532207489
9.380352818,10.42433167,-3.672982693,8.623134613
9.390352818,10.42433167,-3.672982693,8.623134613
9.400352818,10.42433167,-3.672982693,8.623134613
9.410352818,16.43510246,-4.658825874,14.36590862
9.420352818,17.90908051,-5.022534847,15.33739471
9.430352818,19.03370857,-5.730810165,16.25623894
9.440352818,19.61755562,-6.443871498,18.33799362
9.450352818,17.54537201,-5.749952793,25.11446762
9.460352818,15.81775379,-5.118247509,26.85644341
9.470352818,14.21456337,-4.835894585,25.8514576
9.480352818,12.85065365,-4.606183529,22.67378998
9.490352818,11.48674488,-4.007977962,18.77827454
9.500352818,9.548559189,-3.208775282,15.14118385
9.510352818,7.251449108,-2.400001049,12.09272766
9.520352818,7.251449108,-2.400001049,12.09272766
9.530352818,7.251449108,-2.400001049,12.09272766
9.540352818,-0.104087785,-0.299102843,5.076971531
9.550352818,-0.989432156,-0.198604286,4.210769653
9.560352818,-1.707278967,-0.083748795,3.483351469
9.570352818,-2.319841623,0.059820566,2.598007202
9.580352818,-2.319841623,0.059820566,2.598007202
9.590352818,-2.985046148,0.916451097,0.286540508
9.600352818,-3.229114056,0.825523794,-0.603589535
9.610352818,-3.544966698,0.921236694,-1.6181463
9.620352818,-3.793820381,1.15094769,-2.379063845
9.630352818,-4.080958843,1.409372568,-2.781058073
9.640352818,-4.253242016,1.730010748,-2.781058073
9.650352818,-4.305884361,2.203789711,-1.790429592
9.660352818,-4.305884361,2.203789711,-1.790429592
9.670352818,-4.286741734,2.304288149,-0.814157903
9.680352818,-4.348955154,2.218146563,-0.555733085
9.690352818,-4.315455437,2.285145521,-0.560518682
9.700352818,-4.109673023,2.093719721,-0.809372246
9.710352818,-3.789034605,1.643869162,-1.417149186
9.720352818,-3.722035646,1.615155339,-1.292722464
9.730352818,-3.722035646,1.615155339,-1.292722464
9.740352818,-3.722035646,1.615155339,-1.292722464
9.750352818,-3.722035646,1.615155339,-1.292722464
9.760352818,-3.722035646,1.615155339,-1.292722464
9.770352818,-3.980460405,0.614955425,-1.034297585
9.780352818,-3.980460405,0.614955425,-1.034297585
9.790352818,-4.104887009,-0.385244459,-0.225523531
9.800352818,-3.923032761,-1.136590719,-0.302093863
9.810352818,-3.678964853,-2.088934183,-0.172881439
9.820352818,-3.33439827,-3.136990547,0.382253408
9.830352818,-2.927618504,-4.118047714,1.124028444
9.840352818,-2.927618504,-4.118047714,1.124028444
9.850352818,-3.82731986,-6.242874146,1.549950838
9.860352818,-4.880161762,-6.372086525,2.109871387
9.870352818,-5.751149178,-7.142575741,2.846860647
9.880352818,-7.191628456,-8.166703224,3.636492252
9.890352818,-9.215956688,-8.918049812,4.928616524
9.900352818,-12.47976685,-11.61236858,9.451051712
9.910352818,-14.28395462,-12.47856998,11.95872974
9.920352818,-16.30828285,-12.48335552,14.76790333
9.930352818,-17.94018745,-12.84227943,16.95015717
9.940352818,-19.42373848,-13.70848083,18.06999779
9.950352818,-21.65863419,-15.16331673,19.30469513
9.960352818,-23.71646118,-17.78106499,20.36710739
9.970352818,-23.71646118,-17.78106499,20.36710739
9.980352818,-28.34418106,-33.14777374,15.02154255
9.990352818,-27.51626396,-41.80979156,8.278568268
10.00035282,-27.10948372,-51.09872818,1.487737536
10.01035282,-20.36651039,-62.74698639,-1.670788407
10.02035282,-6.186643124,-76.68278503,-7.174280643
10.03035282,46.24488831,-107.3444138,2.210369825
10.04035282,70.53203583,-110.9910812,14.44726467
10.05035282,82.20901489,-102.0658493,32.02972412
10.06035282,83.47720337,-86.90971375,56.49872971
10.07035282,82.25208282,-71.79664612,75.36853027
10.08035282,82.25208282,-71.79664612,75.36853027
10.09035282,69.33084106,-47.34199524,60.77231216
10.10035282,69.33084106,-47.34199524,60.77231216
10.11035282,69.33084106,-47.34199524,60.77231216
10.12035282,24.41277313,-7.348358154,-6.202794552
10.13035282,18.05743599,-2.859423161,-9.672387123
10.14035282,16.72702599,-2.251646042,-10.34237766
10.15035282,16.72702599,-2.251646042,-10.34237766
10.16035282,17.51665878,-2.97427845,-1.264008522
10.17035282,16.79881096,-2.916850805,3.957130432
10.18035282,16.79881096,-2.916850805,3.957130432
10.19035282,12.91286755,-3.117847919,12.30808163
10.20035282,12.91286755,-3.117847919,12.30808163
10.21035282,10.40518951,-3.27577424,13.14078331
10.22035282,9.936196327,-3.424129248,11.29352474
10.23035282,9.936196327,-3.424129248,11.29352474
10.24035282,9.936196327,-3.424129248,11.29352474
10.25035282,9.629914284,-2.648854733,7.139584541
10.26035282,9.74477005,-2.060220242,7.421937466
10.27035282,9.897911072,-1.572084427,7.436294556
10.28035282,10.59661484,-1.543370605,7.311867714
10.29035282,10.59661484,-1.543370605,7.311867714
10.30035282,10.59661484,-1.543370605,7.311867714
10.31035282,10.59661484,-1.543370605,7.311867714
10.32035282,14.79362583,-2.490928411,8.857631683
10.33035282,14.8654108,-2.644068956,10.6857481
10.34035282,14.64048576,-2.620140791,12.88714409
10.35035282,14.44905949,-2.873780012,15.37089443
10.36035282,15.76511192,-3.495913982,20.16611099
10.37035282,16.35374641,-3.960121393,20.64467621
10.38035282,16.10489273,-4.280759811,19.32383728
10.39035282,14.98026657,-4.051048756,16.74916077
10.40035282,13.13779259,-3.869194269,13.87298775
10.41035282,11.61117172,-3.830909014,12.08315659
10.42035282,9.778269768,-2.495713949,9.920044899
10.43035282,9.328418732,-1.763510346,8.632705688
10.44035282,8.758927345,-1.337587833,7.254439831
10.45035282,7.653443336,-1.117448211,5.962316036
10.46035282,5.940182209,-1.136590719,4.69411993
10.47035282,3.791427374,-1.069591761,3.813561201
10.48035282,3.791427374,-1.069591761,3.813561201
10.49035282,-2.726621389,1.347159147,2.856431961
10.50035282,-3.320041418,1.447657704,2.152942181
10.51035282,-2.946761131,1.466800332,1.406381488
10.52035282,-1.79820621,1.538584948,0.956530869
10.53035282,-0.07537391,1.682154298,0.836889744
10.54035282,1.379462242,1.710868239,0.554536641
10.55035282,2.082952023,2.983849764,-0.259023041
10.56035282,2.082952023,2.983849764,-0.259023041
10.57035282,-0.43908295,5.094319344,-0.010169496
10.58035282,-0.43908295,5.094319344,-0.010169496
10.59035282,-1.932204247,7.171289444,2.880360365
10.60035282,-2.018345833,7.204789162,4.732405186
10.61035282,-2.018345833,7.204789162,4.732405186
10.62035282,-0.721436024,7.391428947,4.660620213
10.63035282,-0.405583441,6.87457943,3.153141975
10.64035282,-0.491725057,6.42472887,1.372882009
10.65035282,-0.53479588,5.974878311,-0.196809664
10.66035282,-0.171086818,5.261816978,-1.326221943
10.67035282,0.317048997,4.563112736,-2.240280151
10.68035282,0.120837547,3.337987661,-2.804986238
10.69035282,-0.817148924,2.950350285,-2.388635159
10.70035282,-2.224128723,2.658426046,-1.723430514
10.71035282,-3.726821184,2.624926329,-1.000798106
10.72035282,-4.904089928,2.495713949,-0.369092882
10.73035282,-4.904089928,2.495713949,-0.369092882
10.74035282,-6.660421848,0.964307547,0.114257284
10.75035282,-6.660421848,0.964307547,0.114257284
10.76035282,-6.660421848,0.964307547,0.114257284
10.77035282,-8.081758499,-1.15094769,-0.637089014
10.78035282,-8.33539772,-2.313859463,-1.091725349
10.79035282,-9.483952522,-2.792423964,-1.240080357
10.80035282,-11.18285656,-2.017149448,-0.239880472
10.81035282,-11.18285656,-2.017149448,-0.239880472
10.82035282,-12.74297714,-1.80658114,4.019343853
10.83035282,-13.19761372,-2.184647083,4.215555191
10.84035282,-13.65224934,-2.538784742,4.15334177
10.85035282,-14.03988647,-2.873780012,4.004986763
10.86035282,-14.93480206,-3.730410576,3.981058598
10.87035282,-16.53320885,-5.367101192,5.632106304
10.88035282,-15.72921944,-7.329215527,6.426523209
10.89035282,-14.70987701,-10.28195858,6.335596085
10.90035282,-14.59502125,-13.69412422,7.699504852
10.91035282,-16.37528229,-16.64686775,12.27458191
10.92035282,-18.86381721,-20.40838432,22.4632206
10.93035282,-18.86381721,-20.40838432,22.4632206
10.94035282,-18.86381721,-20.40838432,22.4632206
10.95035282,-18.86381721,-20.40838432,22.4632206
10.96035282,-18.86381721,-20.40838432,22.4632206
10.97035282,11.21874905,-44.40361023,34.72882843
10.98035282,34.90769196,-51.29972458,42.98885345
10.99035282,68.06264496,-61.08158493,49.78925705
11.00035282,68.06264496,-61.08158493,49.78925705
11.01035282,68.06264496,-61.08158493,49.78925705
11.02035282,94.474617,-51.25665283,6.675376892
11.03035282,82.57750702,-39.8333168,-7.097710133
11.04035282,71.05367279,-26.74457932,-20.61715889
11.05035282,71.05367279,-26.74457932,-20.61715889
11.06035282,71.05367279,-26.74457932,-20.61715889
11.07035282,25.14976311,-5.893522263,-32.42334366
11.08035282,10.26161957,-3.146561861,-25.25444794
11.09035282,3.437289715,-2.935993433,-16.72164345
11.10035282,2.24566412,-3.06999135,-8.131409645
11.11035282,3.221935749,-3.002992392,-1.847857237
11.12035282,4.552345276,-3.649054527,0.631106973
11.13035282,7.806583881,-4.185046673,-3.498904943
11.14035282,8.084151268,-3.878765583,-6.623931408
11.15035282,7.763513088,-3.438486099,-7.619345665
11.16035282,7.198806763,-2.639283419,-6.786643028
11.17035282,7.548159122,-1.753939033,-4.269393921
11.18035282,8.754141808,-1.217946768,-1.264008522
11.19035282,12.20459175,-0.011964113,0.870389223
11.20035282,14.2432766,0.265603304,-0.297308207
11.21035282,14.2432766,0.265603304,-0.297308207
11.22035282,17.74158287,0.4953143,-1.65164578
11.23035282,17.74158287,0.4953143,-1.65164578
11.24035282,18.97628021,0.538385093,0.300897449
11.25035282,18.98585129,0.370887518,1.808375716
11.26035282,18.98585129,0.370887518,1.808375716
11.26035282,17.68894196,1.476371527,4.258625984
11.28035282,18.2967186,1.682154298,6.57966423
11.29035282,19.33041763,1.414158225,7.895716667
11.30035282,19.89990997,1.021735311,8.948558807
11.31035282,19.73719788,0.815952539,9.63290596
11.32035282,16.70788383,1.414158225,8.063214302
11.33035282,15.2913332,2.55792737,6.670591354
11.34035282,14.54955769,3.519842148,5.565107346
11.35035282,14.43948841,4.113262177,4.50269413
11.36035282,14.7457695,4.692325115,4.100699902
11.37035282,15.55932903,5.146961689,4.560121536
11.38035282,15.55932903,5.146961689,4.560121536
11.39035282,15.55932903,5.146961689,4.560121536
11.40035282,15.55932903,5.146961689,4.560121536
11.41035282,15.55932903,5.146961689,4.560121536
11.42035282,11.91266727,5.869594097,11.29352474
11.43035282,9.672985077,5.922235966,11.57587814
11.44035282,8.074580193,5.936593056,11.6524477
11.45035282,5.504688263,5.357530117,9.561120987
11.46035282,5.504688263,5.357530117,9.561120987
11.47035282,2.934797049,4.400400639,5.885745525
11.48035282,1.532602906,4.185046673,4.560121536
11.49035282,0.13519448,3.950550079,3.679563046
11.50035282,-0.458225548,3.529413462,4.105485439
11.51035282,-0.458225548,3.529413462,4.105485439
11.52035282,-0.458225548,3.529413462,4.105485439
11.53035282,-0.458225548,3.529413462,4.105485439
11.54035282,-0.458225548,3.529413462,4.105485439
11.55035282,-0.458225548,3.529413462,4.105485439
11.56035282,-6.445067883,1.232303619,1.808375716
11.57035282,-7.880761147,2.151147604,0.276969224
11.58035282,-7.545766354,2.232503414,-0.12023934
11.59035282,-7.545766354,2.232503414,-0.12023934
11.60035282,-5.851647854,1.782652855,2.301297188
11.61035282,-5.41136837,1.47158587,3.200998545
11.62035282,-5.416153908,1.29451704,3.248854876
11.63035282,-5.349154949,1.47158587,2.923431158
11.64035282,-5.349154949,1.47158587,2.923431158
11.65035282,-7.191628456,2.012363911,2.018944025
11.66035282,-8.402397156,2.97427845,2.349153519
11.67035282,-9.024530411,3.491128206,2.48793745
11.68035282,-9.058030128,3.6299119,2.29651165
11.69035282,-8.565108299,3.768695593,1.856232166
11.70035282,-7.756334782,3.716053486,1.234098315
11.71035282,-7.756334782,3.716053486,1.234098315
11.72035282,-7.756334782,3.716053486,1.234098315
11.73035282,-7.756334782,3.716053486,1.234098315
11.74035282,-6.378068924,1.462014675,1.420738459
11.75035282,-7.569694519,1.481157184,2.502294302
11.76035282,-8.933603287,1.686939955,3.373281717
11.77035282,-8.933603287,1.686939955,3.373281717
11.78035282,-11.39821053,0.624526739,4.660620213
11.79035282,-12.11127186,0.768096089,5.344967365
11.80035282,-12.38405323,0.318245411,5.627320766
11.81035282,-12.33141136,-0.634097993,5.297111034
11.82035282,-12.38405323,-1.816152334,4.890331268
11.83035282,-11.93420315,-7.089933395,4.765904427
11.84035282,-13.84846115,-8.975478172,4.34476757
11.85035282,-15.77229023,-12.17228889,6.235097408
11.86035282,-17.07877159,-18.29791451,12.78664589
11.87035282,-17.07877159,-18.29791451,12.78664589
11.88035282,-31.61756134,-21.90150642,37.58107376
11.89035282,-40.56193161,-23.38505554,42.76392746
11.90035282,-40.56193161,-23.38505554,42.76392746
11.91035282,-40.56193161,-23.38505554,42.76392746
11.92035282,31.07917786,-78.30033875,36.9206543
11.93035282,86.12845612,-97.50034332,50.01417923
11.94035282,123.3607712,-89.63752747,56.08716583
11.95035282,113.2343521,-59.86602783,58.21199036
11.96035282,68.81877899,-34.5116806,37.28915024
11.97035282,49.88676453,-12.31107235,6.407381058
11.98035282,49.88676453,-12.31107235,6.407381058
11.99035282,49.88676453,-12.31107235,6.407381058
12.00035282,22.71865463,7.530212879,-53.43711472
12.01035282,18.75613976,6.558726788,-47.29713058
12.02035282,19.35913086,3.850051641,-31.5619297
12.03035282,19.35913086,3.850051641,-31.5619297
12.04035282,19.35913086,3.850051641,-31.5619297
12.05035282,13.07079411,2.117648125,30.2063942
12.06035282,13.07079411,2.117648125,30.2063942
12.07035282,7.213163853,0.835095108,2.387438774
12.08035282,4.470989227,1.538584948,-9.701101303
12.09035282,4.470989227,1.538584948,-9.701101303
12.10035282,5.734399319,1.892722726,-8.160123825
12.11035282,8.270791054,1.136590719,0.348753899
12.12035282,10.55354404,0.662811875,8.704490662
12.13035282,11.63510036,0.787238657,14.61954784
12.14035282,11.84088326,1.15094769,16.6151619
12.15035282,11.89831066,0.95952189,14.47119331
12.16035282,11.89831066,0.95952189,14.47119331
12.17035282,11.89831066,0.95952189,14.47119331
12.18035282,11.86481094,1.146162033,-0.574875653
12.19035282,11.86959648,1.361516118,-0.43609193
12.20035282,12.30030441,1.131805062,1.621735573
12.21035282,12.85543919,0.653240561,4.938187599
12.22035282,12.85543919,0.653240561,4.938187599
12.23035282,12.85543919,0.653240561,4.938187599
12.24035282,12.85543919,0.653240561,4.938187599
12.25035282,12.41994572,-0.174676046,12.62393379
12.26035282,12.61615753,-0.342173636,12.15494061
12.27035282,13.00379467,-0.361316234,11.90130138
12.28035282,13.22871971,0.413958311,12.50907898
12.29035282,12.88415337,1.021735311,12.18365479
12.30035282,12.40080357,1.883151412,11.27916813
12.31035282,12.40080357,1.883151412,11.27916813
12.32035282,11.63510036,4.706682205,10.15932655
12.33035282,11.75952721,5.429314613,10.72403336
12.34035282,12.42473125,5.606383324,12.44207954
12.35035282,14.61177158,5.438885689,16.89751625
12.36035282,14.37727451,5.261816978,17.4813633
12.37035282,12.30987644,5.027320385,16.44287872
12.38035282,8.797212601,4.563112736,13.82513142
12.39035282,5.246263504,4.122833252,10.75753212
12.40035282,1.499103427,4.089334011,7.670791149
12.41035282,-5.028516769,5.453242779,1.899302959
12.42035282,-6.373282909,6.702296257,-0.507876635
12.43035282,-6.392425537,7.353144169,-2.292922258
12.44035282,-5.085944653,7.228717327,-3.369692564
12.45035282,-2.831905603,6.42472887,-3.26440835
12.46035282,-0.99900347,5.783452511,-2.54656148
12.47035282,-0.482153773,5.615954876,-1.637288928
12.48035282,-0.482153773,5.615954876,-1.637288928
12.49035282,-3.114258766,4.98903513,0.080757767
12.50035282,-4.516452789,4.711467743,0.310468733
12.51035282,-5.52622366,3.964907169,1.009172916
12.52035282,-6.27278471,3.203989506,2.133799553
12.53035282,-6.851847649,2.443071842,2.985644341
12.54035282,-6.851847649,2.443071842,2.985644341
12.55035282,-8.967103004,-0.011964113,1.258026481
12.56035282,-10.06780148,0.021535404,-0.053240303
12.57035282,-10.86221886,0.193818629,-1.340578914
12.58035282,-11.23549843,0.184247345,-2.556132793
12.59035282,-11.05842972,0.284745902,-3.522833109
12.60035282,-10.35015392,0.270388961,-4.226323128
12.61035282,-8.282755852,-0.418743968,-4.345963955
12.62035282,-7.756334782,-0.35174492,-3.833899975
12.63035282,-7.746763229,-0.222532511,-3.393620729
12.64035282,-8.115258217,-0.083748795,-3.546761274
12.65035282,-8.440681458,0.10767702,-3.800400496
12.66035282,-8.459824562,0.318245411,-3.948755503
12.67035282,-8.459824562,0.318245411,-3.948755503
12.68035282,-8.459824562,0.318245411,-3.948755503
12.69035282,-6.995417118,0.10767702,-3.36012125
12.70035282,-6.794419765,0.078963146,-3.245265722
12.71035282,-6.646064758,-0.423529595,-3.092125177
12.72035282,-6.780063152,-0.964307547,-2.709273338
12.73035282,-6.780063152,-0.964307547,-2.709273338
12.74035282,-8.478966713,-2.46221447,-0.684945464
12.74035282,-8.478966713,-2.46221447,-0.684945464
12.76035282,-7.100701332,-5.084748268,0.028115666
12.77035282,-6.387639999,-6.778866768,0.19561325
12.78035282,-6.090929985,-8.664410591,0.693320334
12.79035282,-6.05264473,-11.19601727,1.411167145
12.80035282,-6.05264473,-11.19601727,1.411167145
12.81035282,-6.05264473,-11.19601727,1.411167145
12.82035282,-21.81177521,-19.10190392,9.589835167
12.83035282,-31.11506844,-22.7772789,11.79601765
12.84035282,-39.22673798,-29.35754013,14.50947857
12.85035282,-48.10889435,-38.3019104,17.29472351
12.86035282,-54.69394302,-55.52066422,27.63650322
12.87035282,-36.47977829,-73.16055298,29.56033325
12.88035282,-3.396611691,-89.84331512,26.4161644
12.89035282,37.71686554,-110.7661514,4.110270977
12.90035282,73.25506592,-118.0068359,-20.45444679
12.91035282,83.02735901,-110.7948685,-23.00519562
12.92035282,62.61658096,-107.4592743,7.259225845
12.93035282,62.61658096,-107.4592743,7.259225845
12.94035282,62.61658096,-107.4592743,7.259225845
12.95035282,62.61658096,-107.4592743,7.259225845
12.96035282,30.59104156,-29.12304497,33.12563705
12.97035282,18.58864212,-22.14557266,16.11745453
12.98035282,8.323433876,-13.57448292,1.870589137
12.99035282,8.323433876,-13.57448292,1.870589137
13.00035282,8.323433876,-13.57448292,1.870589137
13.01035282,19.18684769,-11.76550865,-4.264608383
13.02035282,17.06202126,-11.18644619,6.421737671
13.03035282,12.76451206,-9.650253296,16.1892395
13.04035282,7.773084164,-7.951349735,21.2093811
13.05035282,4.155136585,-7.27178812,20.88395691
13.06035282,2.915654421,-7.831708431,11.80080318
13.07035282,4.159922123,-8.453842163,7.378866673
13.08035282,4.710271358,-8.755337715,4.158127785
13.09035282,4.049852371,-8.003992081,2.330011129
13.10035282,2.910868645,-7.319644451,2.224726915
13.11035282,2.130808592,-6.826723099,3.440280676
13.12035282,2.130808592,-6.826723099,3.440280676
13.13035282,4.135993958,-6.735795975,11.39880848
13.14035282,5.523830891,-7.343572617,13.4662075
13.15035282,5.523830891,-7.343572617,13.4662075
13.16035282,7.409375191,-8.056633949,15.16989708
13.17035282,8.500502586,-8.683553696,15.1028986
13.18035282,8.500502586,-8.683553696,15.1028986
13.19035282,8.500502586,-8.683553696,15.1028986
13.20035282,9.146564484,-11.8660078,20.73081779
13.21035282,8.768498421,-13.04806232,23.11885452
13.22035282,7.993224144,-13.9860487,24.96132851
13.23035282,6.844669342,-14.28275871,25.43989182
13.24035282,6.011966705,-14.38325691,23.93719864
13.25035282,6.921239376,-14.89053535,18.75434494
13.26035282,7.782655716,-14.26840115,17.07458496
13.27035282,8.347361565,-12.92363548,16.06002808
13.28035282,8.347361565,-12.92363548,16.06002808
13.29035282,8.347361565,-12.92363548,16.06002808
13.30035282,8.778069496,-7.286144733,13.53799248
13.31035282,8.778069496,-7.286144733,13.53799248
13.32035282,8.778069496,-7.286144733,13.53799248
13.33035282,4.930410862,-0.849452019,6.244668961
13.34035282,4.32263422,0.63888365,6.211169243
13.35035282,3.667000771,1.993221283,6.933801651
13.36035282,3.279363394,3.098705292,7.919644833
13.37035282,3.394218922,3.342773199,8.235497475
13.38035282,4.303491592,2.165504456,6.890730858
13.39035282,4.303491592,2.165504456,6.890730858
13.40035282,4.303491592,2.165504456,6.890730858
13.41035282,-0.530010223,3.8213377,3.966701746
13.42035282,-1.913061738,4.850251675,3.186641455
13.43035282,-2.664407969,5.91266489,2.138585329
13.44035282,-2.664407969,5.91266489,2.138585329
13.45035282,-2.664407969,5.91266489,2.138585329
13.46035282,-2.664407969,5.91266489,2.138585329
13.47035282,-1.908276081,5.52981329,1.612164259
13.48035282,-2.123630047,5.18046093,3.760919094
13.49035282,-2.133201361,4.433900356,6.225526333
13.50035282,-2.252842426,3.376272678,8.359924316
13.51035282,-3.004188776,1.088734269,10.49432182
13.52035282,-3.942175388,-0.122033954,10.49432182
13.53035282,-5.334797859,-1.189232826,9.738189697
13.54035282,-6.952346325,-1.969292998,7.776075363
13.55035282,-8.139185905,-2.285145521,4.780261517
13.56035282,-8.139185905,-2.285145521,4.780261517
13.57035282,-8.139185905,-2.285145521,4.780261517
13.58035282,-9.048459053,-3.448057413,-9.433105469
13.59035282,-9.230313301,-3.538984776,-11.78764248
13.60035282,-9.345169067,-3.471985579,-13.40040493
13.61035282,-9.067601204,-3.505485058,-13.76411438
13.62035282,-8.316255569,-3.797409534,-12.66341591
13.63035282,-7.651050568,-4.414757729,-10.49551868
13.64035282,-7.081558704,-5.659025669,-6.757929325
13.65035282,-7.081558704,-5.659025669,-6.757929325
13.66035282,-7.081558704,-5.659025669,-6.757929325
13.67035282,-7.081558704,-5.659025669,-6.757929325
13.68035282,-9.546165466,-4.175475597,-0.239880472
13.69035282,-10.3214407,-3.524627686,0.535394073
13.70035282,-10.3214407,-3.524627686,0.535394073
13.71035282,-10.3214407,-3.524627686,0.535394073
13.72035282,-10.3214407,-3.524627686,0.535394073
13.73035282,-13.30289745,-0.777667344,-0.058025949
13.74035282,-13.30289745,-0.777667344,-0.058025949
13.75035282,-13.08275795,-0.916451097,-1.173081279
13.76035282,-11.25942707,-2.342573404,-3.384049416
13.77035282,-9.991230965,-3.515056372,-4.159324169
13.78035282,-8.708678246,-4.922036171,-4.575675011
13.79035282,-7.646264553,-6.486942291,-4.307679176
13.80035282,-6.981060028,-8.176275253,-3.427120209
13.81035282,-6.373282909,-10.07617569,-2.111067772
13.82035282,-5.531009674,-12.39721394,-0.029312078
13.83035282,-3.516252756,-17.58963966,6.426523209
13.84035282,-3.023331404,-20.38445663,10.44646549
13.85035282,-4.683950424,-24.13640213,15.56710625
13.86035282,-11.99163055,-26.4287262,22.44407845
13.87035282,-27.74118996,-23.6434803,30.47439194
13.88035282,-46.94598389,-19.10668945,36.50430298
13.89035282,-46.94598389,-19.10668945,36.50430298
13.90035282,-42.08376694,-48.09812927,29.47419167
13.91035282,-10.34058285,-74.20381927,30.84767151
13.92035282,36.45824051,-103.2670441,18.18964005
13.93035282,90.51210785,-119.3707428,-3.211766243
13.94035282,110.8175964,-100.5344467,-17.11885071
13.95035282,81.34281158,-73.62476349,-7.126423836
13.96035282,21.29253197,-41.68057632,71.75536346
13.97035282,29.08834839,-35.44966888,88.36155701
13.98035282,37.56851196,-27.27099991,75.78009796
13.99035282,38.21457291,-19.25982857,54.31169128
14.00035282,30.39961433,-17.24507332,38.23192215
14.01035282,18.8997097,-15.3978138,21.75494576
14.02035282,8.232506752,-4.443471432,-15.86979771
14.03035282,8.232506752,-4.443471432,-15.86979771
14.04035282,8.232506752,-4.443471432,-15.86979771
14.05035282,8.232506752,-4.443471432,-15.86979771
14.06035282,6.921239376,-3.409772158,0.454038084
14.07035282,6.203392506,-4.031906128,12.72921848
14.08035282,7.117451191,-4.395615101,21.68794632
14.09035282,7.117451191,-4.395615101,21.68794632
14.10035282,7.117451191,-4.395615101,21.68794632
14.10035282,8.687142372,-5.568098068,20.4053936
14.12035282,7.634300709,-5.754738331,10.92024422
14.13035282,6.911668301,-5.05124855,7.613363266
14.14035282,6.873383045,-4.208974838,6.010172367
14.15035282,6.873383045,-4.208974838,6.010172367
14.16035282,7.639086246,-2.950350285,8.742775917
14.17035282,7.380661488,-2.471785784,9.905687332
14.18035282,7.380661488,-2.471785784,9.905687332
14.19035282,7.380661488,-2.471785784,9.905687332
14.20035282,9.251849174,-2.912065268,11.33181
14.21035282,9.251849174,-2.912065268,11.33181
14.22035282,9.251849174,-2.912065268,11.33181
14.23035282,12.33858967,-5.022534847,16.10788345
14.24035282,12.03709412,-5.070391178,16.77787399
14.25035282,11.58245754,-5.218746185,16.94058609
14.26035282,10.96989536,-5.434100151,16.50987816
14.27035282,10.45783138,-5.702096462,16.04566956
14.28035282,10.20419216,-5.285745144,14.71047497
14.29035282,11.27139091,-5.01774931,14.53340626
14.30035282,12.87458229,-5.347958565,15.23689651
14.31035282,13.56850052,-5.845665932,16.23709679
14.32035282,13.70249844,-6.199803352,17.83550262
14.33035282,13.18086338,-6.156732559,18.69691849
14.34035282,13.18086338,-6.156732559,18.69691849
14.35035282,13.18086338,-6.156732559,18.69691849
14.36035282,13.18086338,-6.156732559,18.69691849
14.37035282,13.18086338,-6.156732559,18.69691849
14.38035282,4.700700283,-0.710668325,10.32682419
14.39035282,4.700700283,-0.710668325,10.32682419
14.40035282,3.805784464,0.725025237,8.144570351
14.41035282,3.418147087,1.873580098,7.977072716
14.42035282,2.657229662,2.122433662,7.642077446
14.43035282,1.436890006,2.189432621,6.795018196
14.44035282,1.436890006,2.189432621,6.795018196
14.45035282,-0.750149906,2.471785784,4.521836758
14.46035282,-0.750149906,2.471785784,4.521836758
14.47035282,-0.750149906,2.471785784,4.521836758
14.48035282,-0.750149906,2.471785784,4.521836758
14.49035282,-5.574080467,1.237089276,2.832503796
14.50035282,-6.765706062,0.906879783,2.449652195
14.51035282,-7.679764271,0.887737215,1.348953724
14.52035282,-7.95254612,0.835095108,0.186041966
14.53035282,-7.531409264,0.514456868,-0.498305321
14.54035282,-7.531409264,0.514456868,-0.498305321
14.55035282,-6.421139717,0.122033954,-1.455434322
14.56035282,-6.090929985,-0.093320087,-1.910070658
14.57035282,-5.770291805,-0.313459754,-2.503490686
14.58035282,-5.76072073,-0.418743968,-3.183052301
14.59035282,-6.172286034,-0.35174492,-3.948755503
14.60035282,-6.172286034,-0.35174492,-3.948755503
14.61035282,-6.172286034,-0.35174492,-3.948755503
14.62035282,-6.172286034,-0.35174492,-3.948755503
14.63035282,-7.450053215,0.5910272,-4.685744762
14.64035282,-7.450053215,0.5910272,-4.685744762
14.65035282,-6.717849731,0.428315252,-4.393820763
14.66035282,-6.717849731,0.428315252,-4.393820763
14.67035282,-6.717849731,0.428315252,-4.393820763
14.68035282,-5.23429966,0.337387979,-4.010969162
14.69035282,-5.339583874,0.308674127,-3.503690481
14.70035282,-5.645864964,0.227318153,-3.053839922
14.71035282,-6.043073654,0.179461703,-2.766701221
14.72035282,-6.454638958,0.193818629,-2.364706993
14.73035282,-7.048058987,0.165104762,-1.857428551
14.74035282,-7.172485828,0.126819596,-1.608574986
14.75035282,-7.363911629,0.270388961,-1.273579836
14.76035282,-7.363911629,0.270388961,-1.273579836
14.77035282,-8.105687141,1.122233868,-0.876371264
14.78035282,-8.230113029,1.29451704,-1.484148264
14.79035282,-8.230113029,1.29451704,-1.484148264
14.80035282,-8.230113029,1.29451704,-1.484148264
14.81035282,-4.487739086,-2.093719721,-4.671388149
14.82035282,-3.477967739,-3.893122435,-5.044668198
14.83035282,-2.841476917,-5.955735683,-5.446662426
14.84035282,-2.793620348,-8.377271652,-5.537590027
14.85035282,-3.224328518,-10.75573826,-4.403391838
14.86035282,-4.03788805,-19.90110588,1.923231244
14.87035282,-5.612365723,-26.95036125,6.56530714
14.88035282,-10.71386337,-32.75534821,14.55254936
14.89035282,-22.50569344,-33.92783356,28.96691322
14.90035282,-38.52803421,-31.92264748,45.43431854
14.91035282,-53.88516998,-30.43909645,55.5320282
14.92035282,-53.88516998,-30.43909645,55.5320282
14.93035282,-53.88516998,-30.43909645,55.5320282
14.94035282,-53.88516998,-30.43909645,55.5320282
14.95035282,-2.257628202,-104.209816,-6.41336298
14.96035282,41.59802628,-137.9773254,-8.921041489
14.97035282,102.2656479,-151.0660706,-20.49751663
14.98035282,135.8082428,-122.4096298,-12.31884956
14.99035282,135.8082428,-122.4096298,-12.31884956
15.00035282,135.8082428,-122.4096298,-12.31884956
15.01035282,13.09950733,-39.46482468,75.29196167
15.02035282,23.60399818,-31.61636543,55.81916809
15.03035282,38.34857178,-25.47638321,30.15853882
15.04035282,49.44648361,-23.29891396,15.2608242
15.05035282,49.44648361,-23.29891396,15.2608242
15.06035282,49.44648361,-23.29891396,15.2608242
15.07035282,49.44648361,-23.29891396,15.2608242
15.08035282,9.462417603,-5.01774931,-6.06401062
15.09035282,12.23809147,-4.960321426,-7.112067223
15.10035282,13.40578842,-5.19481802,-5.159523964
15.11035282,9.208778381,-4.534399033,5.450251579
15.12035282,6.715456963,-4.587040901,9.991828918
15.13035282,5.145765305,-4.792823792,12.91107273
15.14035282,4.609772682,-5.084748268,14.27019596
15.15035282,5.093122959,-5.625525951,14.38505173
15.16035282,6.074180126,-6.199803352,13.81555939
15.17035282,6.768098831,-6.496513367,13.28913879
15.18035282,6.768098831,-6.496513367,13.28913879
15.19035282,6.768098831,-6.496513367,13.28913879
15.20035282,6.768098831,-6.496513367,13.28913879
15.21035282,7.261020184,-5.19481802,12.11665535
15.22035282,7.261020184,-5.19481802,12.11665535
15.23035282,9.381061554,-4.725824833,10.61396313
15.24035282,9.381061554,-4.725824833,10.61396313
15.25035282,9.381061554,-4.725824833,10.61396313
15.26035282,11.9030962,-4.783252239,10.63310528
15.27035282,11.70209885,-4.84546566,12.12622738
15.28035282,11.61595726,-5.166104317,13.94955826
15.29035282,11.59202957,-5.606383324,15.53839207
15.30035282,12.11366463,-5.793023586,16.22752571
15.31035282,14.23849106,-6.142375946,14.46162224
15.32035282,14.38206005,-6.171089649,14.03091335
15.33035282,13.95135212,-5.941378593,14.40419388
15.34035282,13.95135212,-5.941378593,14.40419388
15.35035282,12.37208939,-5.654240131,16.14616966
15.36035282,11.55374432,-5.161318302,17.63928986
15.37035282,11.55374432,-5.161318302,17.63928986
15.38035282,11.55374432,-5.161318302,17.63928986
15.39035282,9.376275063,-2.744567633,15.16511154
15.40035282,8.773283958,-2.194218397,12.93500137
15.41035282,7.88793993,-1.562513232,11.44187927
15.42035282,6.490531445,-0.672383189,10.74796104
15.43035282,4.868197441,0.346959293,10.71924686
15.44035282,3.829712629,1.189232826,11.2695961
15.45035282,3.829712629,1.189232826,11.2695961
15.46035282,3.308077335,1.189232826,10.06361389
15.47035282,2.877369165,1.083948612,8.340781212
15.48035282,2.365305185,0.91166544,6.622735023
15.49035282,1.369890928,0.758524776,5.225326538
15.50035282,1.369890928,0.758524776,5.225326538
15.51035282,1.369890928,0.758524776,5.225326538
15.52035282,1.369890928,0.758524776,5.225326538
15.53035282,-5.200799942,1.562513232,2.545365095
15.54035282,-5.200799942,1.562513232,2.545365095
15.55035282,-5.334797859,1.031306505,1.104885817
15.56035282,-5.334797859,1.031306505,1.104885817
15.57035282,-5.334797859,1.031306505,1.104885817
15.58035282,-5.167300701,0.184247345,-1.292722464
15.59035282,-5.152943611,0.078963146,-1.469791293
15.60035282,-5.172086239,-0.035892341,-1.479362607
15.61035282,-5.52622366,-0.212961212,-1.37886405
15.62035282,-6.095715523,-0.327816695,-1.307079315
15.63035282,-6.095715523,-0.327816695,-1.307079315
15.64035282,-7.172485828,-0.715453982,-1.862214208
15.65035282,-7.162914753,-0.643669307,-1.991426587
15.66035282,-6.99063158,-0.677168787,-2.101496458
15.67035282,-6.660421848,-0.729810894,-2.21156621
15.68035282,-6.339783669,-0.835095108,-2.259422779
15.69035282,-6.339783669,-0.835095108,-2.259422779
15.70035282,-6.339783669,-0.835095108,-2.259422779
15.71035282,-6.339783669,-0.835095108,-2.259422779
15.72035282,-8.804390907,-0.323031068,-1.929213285
15.73035282,-9.46002388,0.007178468,-2.087139606
15.74035282,-9.46002388,0.007178468,-2.087139606
15.75035282,-10.22572803,0.016749758,-1.914856315
15.76035282,-10.22572803,0.016749758,-1.914856315
15.77035282,-10.6612215,-0.289531529,-1.197009563
15.78035282,-10.46022415,-0.691525757,-1.493719578
15.79035282,-9.919445992,-1.15094769,-2.158924341
15.80035282,-9.426525116,-1.639083505,-2.809772015
15.81035282,-9.115457535,-2.213361025,-3.197409153
15.82035282,-9.708877563,-3.543770313,-2.407777786
15.83035282,-10.55115128,-4.309473515,-0.814157903
15.84035282,-10.55115128,-4.309473515,-0.814157903
15.85035282,-10.55115128,-4.309473515,-0.814157903
15.86035282,-12.15912819,-6.836294174,3.885345697
15.87035282,-12.15912819,-6.836294174,3.885345697
15.88035282,-11.57527924,-9.071190834,5.3210392
15.89035282,-12.54197979,-11.05723381,6.014957905
15.90035282,-12.54197979,-11.05723381,6.014957905
15.91035282,-14.83908939,-15.57966805,10.08754253
15.92035282,-14.83908939,-15.57966805,10.08754253
15.93035282,-23.62553406,-20.49931145,19.11805534
15.94035282,-28.60739136,-23.26062965,23.8319149
15.95035282,-28.60739136,-23.26062965,23.8319149
15.96035282,-28.60739136,-23.26062965,23.8319149
15.97035282,-28.26282501,-61.03372574,12.53779221
15.98035282,3.997210264,-82.49734497,13.45663643
15.99035282,45.75675201,-99.75917053,9.173483849
16.00035282,81.64909363,-102.2572784,6.517450809
16.01035282,56.24688721,-66.25965118,41.42394638
16.02035282,39.78905106,-57.81777191,70.06603241
16.03035282,38.15235901,-52.24249649,85.12645721
16.04035282,35.89353561,-39.34996796,78.10591888
16.05035282,35.89353561,-39.34996796,78.10591888
16.06035282,39.58326721,-26.63929367,25.6504612
16.07035282,31.19403267,-20.21217346,5.225326538
16.08035282,11.70688438,-6.664011002,-17.49213219
16.09035282,10.61575794,-3.811766386,-18.83211327
16.10035282,13.00858021,-3.452843189,-15.23330688
16.11035282,15.09033585,-4.194618225,-8.428119659
16.12035282,14.85583973,-5.079962254,0.396610349
16.13035282,12.13759327,-4.902893543,8.91505909
16.14035282,6.457031727,-4.630111694,17.33779526
16.15035282,6.457031727,-4.630111694,17.33779526
16.16035282,6.457031727,-4.630111694,17.33779526
16.17035282,6.457031727,-4.630111694,17.33779526
16.18035282,7.107879639,-5.797809124,9.73340416
16.19035282,7.509873867,-5.668596745,8.154141426
16.20035282,7.902296543,-5.539384365,6.943373203
16.21035282,7.902296543,-5.539384365,6.943373203
16.22035282,7.844869137,-4.457828522,7.766504288
16.23035282,7.395018578,-3.768695593,8.895915985
16.24035282,7.304090977,-3.357130051,10.42732334
16.25035282,7.643871784,-3.299702406,11.52323532
16.26035282,8.447860718,-3.476771355,11.772089
16.27035282,10.48176003,-3.763910055,10.48953629
16.28035282,11.30967617,-3.59641242,10.04925728
16.29035282,11.88395405,-3.280559778,10.08275604
16.30035282,12.03709412,-3.022135019,10.88195896
16.31035282,11.9653101,-2.921636343,11.78166008
16.32035282,11.9653101,-2.921636343,11.78166008
16.33035282,11.20439243,-2.79720974,13.00199986
16.34035282,11.20439243,-2.79720974,13.00199986
16.35035282,11.20439243,-2.79720974,13.00199986
16.36035282,11.39581776,-0.964307547,12.15494061
16.37035282,13.10907841,-1.083948612,13.23649693
16.38035282,14.5830574,-1.51944232,15.22732544
16.39035282,15.47318745,-1.586441398,17.76850319
16.40035282,15.47318745,-1.586441398,17.76850319
16.41035282,14.60698605,-1.873580098,22.24786758
16.42035282,11.88395405,-1.835294962,21.05624199
16.43035282,8.845068932,-1.428515077,19.18505287
16.44035282,6.198606968,-0.849452019,17.30429459
16.45035282,4.351347923,-0.370887518,15.51446342
16.46035282,2.676372051,-0.069391854,11.92044449
16.47035282,2.360519648,-0.040677983,10.52782154
16.48035282,1.714457393,0.055034921,8.747561455
16.49035282,0.886540771,0.227318153,6.847660065
16.50035282,-0.046660043,0.500099957,5.210969448
16.51035282,-0.975075245,0.662811875,3.665206194
16.52035282,-1.625923038,0.897308469,2.492722988
16.53035282,-1.625923038,0.897308469,2.492722988
16.54035282,-1.625923038,0.897308469,2.492722988
16.55035282,-1.625923038,0.897308469,2.492722988
16.56035282,-3.363112211,1.533799291,-0.847657442
16.57035282,-3.961317778,1.418943882,-1.063011408
16.58035282,-4.774877548,1.351944804,-1.24965167
16.59035282,-6.909275532,1.452443361,-1.57028985
16.60035282,-8.081758499,1.457229018,-1.465005636
16.61035282,-9.31166935,1.596012712,-1.484148264
16.62035282,-10.11565781,1.945364833,-1.7138592
16.63035282,-10.15394306,1.830509305,-1.800000787
16.64035282,-9.680164337,1.37587297,-1.79521513
16.65035282,-9.215956688,0.964307547,-1.919641972
16.66035282,-8.383254051,0.145962179,-2.991626501
16.67035282,-8.383254051,0.145962179,-2.991626501
16.68035282,-8.383254051,0.145962179,-2.991626501
16.69035282,-7.129415035,-1.42372942,-5.269593716
16.70035282,-6.602993965,-1.816152334,-5.858228207
16.71035282,-6.507281303,-2.337787628,-6.006583214
16.72035282,-6.507281303,-2.337787628,-6.006583214
16.73035282,-6.507281303,-2.337787628,-6.006583214
16.74035282,-7.785048485,-1.648654819,-3.77647233
16.75035282,-7.785048485,-1.648654819,-3.77647233
16.76035282,-8.086544037,-0.878165901,-2.493919373
16.77035282,-8.287541389,-0.610169768,-2.297708035
16.78035282,-8.421539307,-0.796809912,-2.345564365
16.79035282,-8.421539307,-0.796809912,-2.345564365
16.80035282,-8.057829857,-3.199203968,-0.680159807
16.81035282,-7.469195843,-4.127619267,1.061815023
16.82035282,-7.63190794,-4.773681164,2.540579557
16.83035282,-8.139185905,-5.03689146,3.492922783
16.84035282,-8.617751122,-5.5154562,4.143770695
16.85035282,-8.617751122,-5.5154562,4.143770695
16.86035282,-13.16889954,-8.884550095,6.086742401
16.87035282,-16.66720581,-10.29631615,7.04387188
16.88035282,-20.40958023,-12.80399418,8.608778
16.89035282,-24.15195465,-15.61316776,11.04467106
16.90035282,-28.05225563,-18.0203476,13.31306744
16.91035282,-28.05225563,-18.0203476,13.31306744
16.92035282,-28.05225563,-18.0203476,13.31306744
16.93035282,-28.05225563,-18.0203476,13.31306744
16.94035282,-32.81875992,-35.93780518,39.77768707
16.95035282,-33.62753296,-38.99104309,37.66721725
16.96035282,-29.77030373,-46.25086975,27.19622421
16.97035282,-13.03968716,-60.45944977,15.33739471
16.98035282,-13.03968716,-60.45944977,15.33739471
16.99035282,82.30950928,-93.33204651,7.594220638
17.00035282,107.0560837,-80.59744263,34.03969574
17.01035282,109.3819046,-58.2915535,64.61039734
17.02035282,109.3819046,-58.2915535,64.61039734
17.03035282,109.3819046,-58.2915535,64.61039734
17.04035282,45.70889282,-15.22553062,17.21336746
17.05035282,40.22454453,-10.68395329,-0.909870803
17.06035282,40.22454453,-10.68395329,-0.909870803
17.07035282,29.71048164,-4.366901398,-22.8903389
17.08035282,24.20220375,-1.47158587,-20.0045948
17.09035282,19.94776535,-0.524028182,-11.87378407
17.10035282,17.47358704,-0.949950576,-2.656631231
17.11035282,17.47358704,-0.949950576,-2.656631231
17.12035282,17.47358704,-0.949950576,-2.656631231
17.13035282,9.940981865,-0.983450115,15.44746494
17.14035282,9.247062683,-0.777667344,16.92144394
17.15035282,8.763712883,-0.524028182,16.63430405
17.16035282,8.318648338,-0.471386075,14.57169151
17.17035282,8.318648338,-0.471386075,14.57169151
17.18035282,8.318648338,-0.471386075,14.57169151
17.19035282,6.485745907,1.24666059,5.679962635
17.20035282,7.079165936,1.395015597,6.206383705
17.21035282,7.572087288,1.136590719,7.402794838
17.22035282,7.749155998,0.926022351,8.795417786
17.23035282,7.643871784,0.930808008,10.13539886
17.24035282,7.457231998,1.036092162,11.51844978
17.25035282,7.643871784,0.997807026,11.62373447
17.26035282,7.730013371,0.916451097,11.67637634
17.27035282,7.56730175,0.945164919,11.772089
17.28035282,7.337590694,0.969093144,12.01137161
17.29035282,7.050451756,0.772881687,12.32243824
17.30035282,7.050451756,0.772881687,12.32243824
17.31035282,7.050451756,0.772881687,12.32243824
17.32035282,7.050451756,0.772881687,12.32243824
17.33035282,6.284748554,0.021535404,12.9828577
17.34035282,6.911668301,-0.055034921,13.37528038
17.35035282,7.308876991,-0.045463629,13.71027565
17.36035282,7.351947784,-0.035892341,13.85863018
17.37035282,6.509674072,0.083748795,13.68156147
17.38035282,6.098108292,0.150747821,13.86341572
17.39035282,5.676971912,0.25603202,14.43290806
17.40035282,5.33240509,0.35174492,14.98325729
17.41035282,5.030909538,0.356530577,15.39482307
17.42035282,4.715056896,0.452243477,15.48096466
17.43035282,4.370490551,1.088734269,14.63869095
17.44035282,4.504488468,1.552941918,14.29891014
17.45035282,4.724628448,1.916650891,14.08834171
17.46035282,4.695914268,2.280359983,13.97827148
17.47035282,4.442275047,2.610569477,13.90648746
17.48035282,4.356133461,2.78285265,13.66241932
17.49035282,4.356133461,2.78285265,13.66241932
17.50035282,4.356133461,2.78285265,13.66241932
17.51035282,4.179064751,3.926621914,10.35553837
17.52035282,4.198207378,4.194618225,9.513264656
17.53035282,3.820141315,4.639683247,9.116056442
17.54035282,2.953939438,5.328815937,9.068199158
17.55035282,2.11645174,5.840879917,9.422337532
17.56035282,1.78145647,5.917450428,10.47039413
17.57035282,1.010967612,5.783452511,10.27418232
17.58035282,-0.022731815,5.548955917,9.78126049
17.59035282,-1.051645517,5.084748268,8.881559372
17.60035282,-2.075773716,4.390829563,7.570292473
17.61035282,-3.004188776,3.687339783,5.746961594
17.62035282,-3.21954298,2.385644197,1.444666624
17.63035282,-3.21954298,2.385644197,1.444666624
17.64035282,-3.602394581,1.347159147,-2.355135679
17.65035282,-4.339384079,1.222732425,-4.063611031
17.66035282,-4.72223568,1.136590719,-5.288736343
17.67035282,-4.72223568,0.906879783,-5.915655613
17.68035282,-4.640879631,0.552742004,-6.107081413
17.69035282,-4.640879631,0.552742004,-6.107081413
17.70035282,-4.640879631,0.552742004,-6.107081413
17.71035282,-4.640879631,0.552742004,-6.107081413
17.72035282,-1.587637782,-3.414557934,-3.886542082
17.73035282,-1.147358418,-4.663611412,-3.541975737
17.74035282,-0.979860902,-6.037091732,-3.26440835
17.75035282,-0.979860902,-6.037091732,-3.26440835
17.76035282,-0.979860902,-6.037091732,-3.26440835
17.77035282,-3.578466177,-10.83230782,-2.302493572
17.78035282,-4.904089928,-10.66002464,-1.60378933
17.79035282,-6.200999737,-10.3728857,-0.728016317
17.80035282,-7.93818903,-9.745966911,0.028115666
17.81035282,-10.34058285,-8.827122688,0.521037102
17.82035282,-10.34058285,-8.827122688,0.521037102
17.83035282,-10.34058285,-8.827122688,0.521037102
17.84035282,-19.68216324,-6.185446739,3.631706476
17.85035282,-20.8067894,-6.017949104,4.225126743
17.86035282,-21.18964005,-6.242874146,3.875774384
17.87035282,-20.88814545,-6.515655994,2.985644341
17.88035282,-18.54317856,-7.7838521,1.143171072
17.89035282,-16.84427452,-8.92283535,0.1477568
17.90035282,-14.99223042,-10.71266651,-0.737587571
17.91035282,-13.80539036,-12.86142159,-1.560718536
17.92035282,-13.03490162,-15.3355999,-2.259422779
17.93035282,-12.54197979,-18.59462547,-2.919841766
17.94035282,-12.54197979,-18.59462547,-2.919841766
17.95035282,-12.54197979,-18.59462547,-2.919841766
17.96035282,-12.54197979,-18.59462547,-2.919841766
17.97035282,-30.63171959,-35.06203079,7.618149281
17.98035282,-32.24926758,-39.43611145,8.446065903
17.99035282,-26.58306313,-47.33721161,7.101299286
18.00035282,-11.11107159,-60.04788589,3.239283562
18.01035282,-11.11107159,-60.04788589,3.239283562
18.02035282,-11.11107159,-60.04788589,3.239283562
18.03035282,-11.11107159,-60.04788589,3.239283562
18.04035282,89.63154602,-65.79544067,78.924263
18.05035282,58.81677628,-38.51726532,74.55975342
18.06035282,35.24268723,-25.95973206,64.0169754
18.07035282,29.2032032,-22.24607277,19.73540306
18.08035282,31.19881821,-16.31665802,2.406581402
18.09035282,32.77807999,-11.64586735,-8.528617859
18.10035282,33.02214813,-7.128218651,-13.61097336
18.11035282,33.10829163,-3.883551121,-13.52483177
18.12035282,32.14159012,-2.816352367,-9.720243454
18.13035282,29.05484962,-2.46221447,-4.494318962
18.14035282,29.05484962,-2.46221447,-4.494318962
18.15035282,29.05484962,-2.46221447,-4.494318962
18.16035282,7.519444942,-1.050449133,14.12184143
18.17035282,5.834897995,-1.629512191,14.5381918
18.18035282,6.174678802,-2.926422119,12.95414352
18.19035282,6.988238335,-3.711267948,10.41296577
18.20035282,6.988238335,-3.711267948,10.41296577
18.21035282,6.988238335,-3.711267948,10.41296577
18.22035282,10.91246796,-5.252245903,6.938587666
18.23035282,11.14696407,-5.295316696,8.891130447
18.24035282,10.39561844,-5.223531723,11.18345451
18.25035282,9.218349457,-4.788038254,13.39920902
18.26035282,8.194221497,-4.299902439,14.93061543
18.27035282,7.548159122,-3.940979004,15.19861126
18.28035282,8.026723862,-3.797409534,14.18405437
18.29035282,8.849854469,-3.716053486,13.10249901
18.30035282,9.80219841,-3.515056372,12.28893852
18.31035282,10.69711399,-3.366701365,12.04008579
18.32035282,11.52503014,-3.50069952,12.61914825
18.33035282,11.52503014,-3.50069952,12.61914825
18.34035282,11.52503014,-3.50069952,12.61914825
18.35035282,11.52503014,-3.50069952,12.61914825
18.36035282,12.64965725,-4.323830605,15.76810265
18.37035282,12.99422359,-4.453042984,15.94517231
18.38035282,13.09950733,-4.309473515,16.17488289
18.39035282,13.09950733,-4.309473515,16.17488289
18.40035282,13.09950733,-4.309473515,16.17488289
18.41035282,12.81236839,-4.185046673,19.10848427
18.42035282,11.56810093,-3.979264021,19.21376801
18.43035282,9.917053223,-3.572484255,18.88355827
18.44035282,8.084151268,-3.117847919,18.25663948
18.45035282,8.084151268,-3.117847919,18.25663948
18.46035282,8.084151268,-3.117847919,18.25663948
18.47035282,4.652843475,-1.433300734,14.53340626
18.48035282,3.55693078,-1.045663476,13.07857037
18.49035282,2.159522533,-0.413958311,11.96830082
18.50035282,0.757328391,0.150747821,10.85803127
18.50035282,0.757328391,0.150747821,10.85803127
18.52035282,0.757328391,0.150747821,10.85803127
18.53035282,0.757328391,0.150747821,10.85803127
18.54035282,-3.784249067,-0.155533478,5.239683151
18.55035282,-5.20558548,-0.174676046,4.024129391
18.56035282,-6.760920525,-0.055034921,3.009572744
18.57035282,-6.760920525,-0.055034921,3.009572744
18.58035282,-10.58943653,0.323031068,0.166899383
18.59035282,-10.58943653,0.323031068,0.166899383
18.60035282,-10.27358437,0.241675094,-2.871985435
18.61035282,-8.890532494,-0.10767702,-2.781058073
18.62035282,-7.445267677,-0.275174618,-2.517847538
18.63035282,-6.263213158,-0.184247345,-2.168495417
18.64035282,-5.315655708,-0.145962179,-1.484148264
18.65035282,-3.262613773,-0.547956407,-0.756730139
18.66035282,-2.559123755,-0.997807026,-0.565304339
18.67035282,-2.645265341,-1.366301775,-0.584446907
18.68035282,-2.645265341,-1.366301775,-0.584446907
18.68035282,-3.54018116,-1.500299811,-0.862014353
18.70035282,-6.062216282,-1.10309124,-1.244866014
18.71035282,-7.368697166,-0.949950576,-1.182652593
18.72035282,-9.704092026,-0.624526739,-1.484148264
18.73035282,-9.957731247,-0.241675094,-2.513062
18.74035282,-9.000602722,-0.404387027,-2.934198856
18.75035282,-7.249056339,-1.069591761,-2.64227438
18.76035282,-5.837290764,-1.581655741,-2.288136721
18.77035282,-4.985445976,-1.797009826,-2.379063845
18.78035282,-5.0763731,-1.887937069,-3.130410194
18.79035282,-5.813362598,-1.811366796,-3.36012125
18.80035282,-6.473781586,-1.859223247,-3.388834953
18.81035282,-7.158128738,-2.031506538,-3.197409153
18.82035282,-7.866404533,-2.184647083,-2.766701221
18.83035282,-8.555537224,-2.275574446,-2.369492531
18.84035282,-8.555537224,-2.275574446,-2.369492531
18.85035282,-9.790233612,-3.448057413,-0.713659346
18.86035282,-10.00080204,-3.912265062,-0.196809664
18.87035282,-9.651450157,-5.228317261,-0.316450804
18.88035282,-8.871390343,-7.113861561,-1.450648785
18.89035282,-8.660821915,-9.387042999,-3.465405464
18.90035282,-9.536594391,-12.50728416,-4.752744198
18.91035282,-15.7866478,-21.41337013,0.736391187
18.92035282,-22.0749855,-26.4670105,8.589634895
18.93035282,-30.9715004,-29.47718239,18.40977859
18.94035282,-39.16931152,-31.20958519,25.72224426
18.95035282,-43.45724869,-35.99044418,27.00958443
18.96035282,-45.58207321,-40.06781387,25.89931488
18.97035282,-38.51367569,-50.93601608,16.88794327
18.98035282,-38.51367569,-50.93601608,16.88794327
18.99035282,-38.51367569,-50.93601608,16.88794327
19.00035282,-38.51367569,-50.93601608,16.88794327
19.01035282,89.82297516,-129.3200989,-9.815957069
19.02035282,133.8700562,-121.5338516,-3.541975737
19.03035282,130.2712402,-89.47481537,29.22533798
19.04035282,130.2712402,-89.47481537,29.22533798
19.05035282,130.2712402,-89.47481537,29.22533798
19.06035282,35.06083298,-22.95913315,42.80221176
19.07035282,42.58865356,-21.13580322,13.29392433
19.08035282,38.2002182,-15.48874092,-2.828914642
19.09035282,30.20818901,-10.02353382,-9.878170013
19.10035282,30.20818901,-10.02353382,-9.878170013
19.11035282,26.60938454,-4.055834293,-15.81715584
19.12035282,22.16351891,-3.93140769,-11.14636612
19.13035282,15.99003696,-3.9170506,-4.499104977
19.14035282,10.22333431,-3.577269793,2.956930637
19.15035282,6.011966705,-2.639283419,9.594620705
19.16035282,4.00199604,-2.050648928,13.54277802
19.17035282,4.877768993,-3.103491068,14.80618858
19.18035282,6.270391941,-3.845266104,14.01655674
19.19035282,8.194221497,-4.926821709,12.8632164
19.20035282,8.194221497,-4.926821709,12.8632164
19.21035282,11.66381359,-6.793223381,11.64766216
19.22035282,11.77866936,-7.022934437,12.07837009
19.23035282,11.77866936,-7.022934437,12.07837009
19.24035282,8.931210518,-6.017949104,13.58584881
19.25035282,8.275577545,-5.615954876,13.35135174
19.26035282,8.246863365,-5.328815937,12.85843086
19.27035282,9.007781029,-5.477170944,12.49472141
19.28035282,10.85025406,-6.142375946,12.83450222
19.29035282,10.85025406,-6.142375946,12.83450222
19.30035282,17.65544128,-8.654839516,18.8739872
19.31035282,17.48315811,-8.874979019,20.02254105
19.32035282,15.76989746,-8.449056625,19.7401886
19.33035282,13.5972147,-7.879564762,18.7112751
19.34035282,11.92702484,-7.458428383,16.90230179
19.35035282,11.03210926,-7.08036232,15.03111362
19.36035282,9.92183876,-5.630311489,14.40419388
19.37035282,10.01755238,-5.252245903,15.56710625
19.38035282,10.01755238,-5.252245903,15.56710625
19.39035282,10.17547798,-5.563312531,16.39023781
19.40035282,9.577272415,-5.008177757,15.24646759
19.41035282,9.041280746,-4.376472473,13.28913879
19.42035282,9.041280746,-4.376472473,13.28913879
19.43035282,9.041280746,-4.376472473,13.28913879
19.44035282,9.041280746,-4.376472473,13.28913879
19.45035282,9.041280746,-4.376472473,13.28913879
19.46035282,1.010967612,-1.332802176,9.786046028
19.47035282,0.025124637,-0.739382207,8.972486496
19.48035282,-0.812363267,-0.227318153,8.015357971
19.49035282,-0.812363267,-0.227318153,8.015357971
19.50035282,-0.812363267,-0.227318153,8.015357971
19.51035282,-0.812363267,-0.227318153,8.015357971
19.52035282,-3.305684566,0.476171702,4.938187599
19.53035282,-3.932604074,0.581455886,4.205984116
19.54035282,-4.511667252,0.605384111,3.334996462
19.55035282,-5.239085197,0.801595569,1.669592023
19.56035282,-5.531009674,1.050449133,1.028315544
19.57035282,-5.631507874,1.146162033,0.497108907
19.58035282,-5.564508915,1.093519926,0.052043892
19.59035282,-5.358726501,0.973878801,-0.335593373
19.60035282,-5.152943611,0.868594646,-0.646660328
19.61035282,-5.038087845,0.806381226,-0.86680001
19.62035282,-5.449653625,0.251246363,-1.230509043
19.63035282,-6.038288116,0.179461703,-1.436291814
19.64035282,-6.780063152,0.20817557,-1.565504193
19.65035282,-7.421339512,0.150747821,-1.771286964
19.66035282,-7.761120319,-0.016749758,-2.187638044
19.67035282,-7.588837147,-0.251246363,-2.575275421
19.68035282,-7.588837147,-0.251246363,-2.575275421
19.69035282,-7.588837147,-0.251246363,-2.575275421
19.70035282,-4.502095699,-1.825723648,-4.307679176
19.71035282,-3.875176191,-2.203789711,-4.393820763
19.72035282,-3.281756163,-2.624926329,-4.331607342
19.73035282,-2.889333248,-3.203989506,-3.972683907
19.74035282,-2.889333248,-3.203989506,-3.972683907
19.75035282,-4.57866621,-4.051048756,-4.073182583
19.76035282,-5.598008633,-4.199403763,-4.36989212
19.77035282,-6.411568165,-4.371686935,-4.111467361
19.78035282,-7.043273449,-4.730610371,-3.302693367
19.79035282,-7.722835064,-5.218746185,-2.240280151
19.80035282,-8.565108299,-6.046662807,-1.192223907
19.81035282,-8.565108299,-6.046662807,-1.192223907
19.82035282,-8.565108299,-6.046662807,-1.192223907
19.83035282,-8.565108299,-6.046662807,-1.192223907
19.84035282,-15.64307785,-8.037490845,5.316253662
19.85035282,-16.77727509,-8.956335068,6.292525291
19.86035282,-18.27518272,-9.549755096,7.833503246
19.87035282,-22.51047897,-11.4640131,10.55653572
19.88035282,-23.82174492,-13.61755371,10.43210888
19.89035282,-25.22872543,-15.81416512,8.144570351
19.90035282,-27.19083977,-17.7332077,6.297310829
19.91035282,-28.50689316,-21.12623024,5.713462353
19.92035282,-31.00021362,-25.61516571,6.369095802
19.93035282,-35.02972794,-28.9507618,6.522236347
19.94035282,-35.02972794,-28.9507618,6.522236347
19.95035282,-35.02972794,-28.9507618,6.522236347
19.96035282,-35.02972794,-28.9507618,6.522236347
19.97035282,33.56771088,-82.38249207,3.540779352
19.97035282,33.56771088,-82.38249207,3.540779352
19.99035282,90.61260223,-86.46464539,14.47597885
20.00035282,90.61260223,-86.46464539,14.47597885
20.01035282,90.61260223,-86.46464539,14.47597885
20.02035282,55.1174736,-31.29572678,76.69415283
20.03035282,41.70330811,-18.7238369,78.63712311
20.04035282,38.28157425,-18.07777596,62.83013916
20.05035282,37.08516312,-19.26461601,38.715271
20.06035282,31.86402321,-16.35972786,13.50449276
20.07035282,16.49731636,-3.462414265,-24.09153748
20.08035282,13.19521999,0.485742986,-29.27917671
20.09035282,12.24766254,0.524028182,-24.97688103
20.10035282,12.24766254,0.524028182,-24.97688103
20.11035282,7.505088329,-0.380458802,-5.116453171
20.12035282,4.973481655,-0.088534437,5.057828903
20.13035282,4.973481655,-0.088534437,5.057828903
20.14035282,4.973481655,-0.088534437,5.057828903
20.15035282,4.973481655,-0.088534437,5.057828903
20.16035282,4.973481655,-0.088534437,5.057828903
20.17035282,17.02373695,-3.682554007,16.7539463
20.18035282,18.95235252,-4.295116425,14.84447384
20.19035282,18.95235252,-4.295116425,14.84447384
20.20035282,15.59282875,-3.672982693,13.26999664
20.21035282,14.00878048,-3.160918713,13.9543438
20.22035282,13.39621735,-3.467200041,14.20319748
20.23035282,13.72642708,-3.73998189,14.16969776
20.24035282,14.76012611,-3.663411379,13.76291752
20.25035282,16.62174225,-3.754338741,13.43270779
20.26035282,20.37368774,-4.697110653,15.67238998
20.27035282,20.78525352,-5.156532764,17.74936104
20.28035282,20.28276062,-5.548955917,19.6396904
20.29035282,19.23470497,-5.496313572,20.64467621
20.30035282,17.82772446,-5.151747227,20.61117554
20.31035282,16.47338676,-5.00339222,19.64447594
20.32035282,16.47338676,-5.00339222,19.64447594
20.33035282,16.47338676,-5.00339222,19.64447594
20.34035282,16.47338676,-5.00339222,19.64447594
20.35035282,9.414560318,-5.716453075,13.41835117
20.36035282,6.782455921,-5.027320385,11.23131084
20.37035282,4.332205296,-3.984049797,9.039485931
20.38035282,2.360519648,-2.950350285,7.211369038
20.38035282,2.360519648,-2.950350285,7.211369038
20.40035282,-1.822134495,-0.949950576,3.894917011
20.41035282,-2.583052158,0.4953143,2.60279274
20.42035282,-2.305484533,1.323230863,1.683948994
20.43035282,-0.884147942,1.409372568,1.612164259
20.44035282,0.288335115,1.117448211,1.305882931
20.45035282,0.814756095,0.710668325,0.49232325
20.46035282,-0.352941334,0.825523794,0.578464866
20.47035282,-2.195414782,1.232303619,0.444466799
20.48035282,-3.769891977,1.557727575,0.128614217
20.49035282,-4.583451748,1.639083505,-0.048454657
20.50035282,-5.014159679,1.658226132,-0.139381915
20.51035282,-5.191228867,1.677368641,-0.134596273
20.52035282,-5.196014404,1.275374413,-0.306879491
20.53035282,-5.320441246,0.873380244,-0.38823548
20.54035282,-5.703292847,0.504885554,-0.536590457
20.55035282,-5.703292847,0.504885554,-0.536590457
20.56035282,-5.703292847,0.504885554,-0.536590457
20.57035282,-6.5790658,0.184247345,0.123828575
20.58035282,-6.5790658,0.184247345,0.123828575
20.59035282,-6.5790658,0.184247345,0.123828575
20.60035282,-4.880161762,-1.045663476,-1.278365493
20.61035282,-4.880161762,-1.045663476,-1.278365493
20.62035282,-3.597608805,-2.012363911,-1.852642894
20.63035282,-3.425325632,-2.648854733,-2.168495417
20.64035282,-3.607180119,-2.821137905,-2.283350945
20.65035282,-3.745963812,-2.711068153,-2.249851465
20.66035282,-3.779463291,-3.065205812,-2.828914642
20.67035282,-3.942175388,-3.328416348,-3.546761274
20.68035282,-4.128815651,-3.534198999,-4.130609989
20.69035282,-4.152743816,-3.984049797,-4.188037872
20.70035282,-4.009174347,-4.788038254,-3.876971006
20.71035282,-4.37288332,-7.467999458,-1.957927108
20.72035282,-4.861019135,-8.793622971,-0.062811591
20.73035282,-5.770291805,-9.817750931,2.018944025
20.74035282,-7.229913712,-10.73659515,4.406980991
20.75035282,-9.096315384,-11.35394382,6.929016113
20.76035282,-11.47956657,-11.95693493,8.838488579
20.77035282,-11.47956657,-11.95693493,8.838488579
20.78035282,-11.47956657,-11.95693493,8.838488579
20.79035282,-11.47956657,-11.95693493,8.838488579
20.80035282,-28.24368286,-17.22592926,16.97408485
20.81035282,-28.24368286,-17.22592926,16.97408485
20.82035282,-30.23929596,-22.50449753,19.65883255
20.83035282,-32.11526871,-23.77269363,21.14238358
20.84035282,-32.11526871,-23.77269363,21.14238358
20.85035282,-32.11526871,-23.77269363,21.14238358
20.86035282,-32.11526871,-23.77269363,21.14238358
20.87035282,-23.328825,-49.48596573,-9.055039406
20.88035282,-8.15832901,-65.20681,-10.41894817
20.89035282,29.25584602,-86.69914246,-6.671787739
20.90035282,121.4895859,-95.99765015,10.90110207
20.91035282,128.7829132,-74.34260559,38.80141449
20.92035282,97.34122467,-44.01118851,77.96234894
20.93035282,49.18327332,-14.4693985,88.45726776
20.94035282,27.93979454,-6.592226505,75.77052307
20.95035282,35.02733612,-13.02413368,49.38247681
20.96035282,43.15335846,-13.61276817,20.84567261
20.97035282,35.23790359,-7.846065521,-10.28016472
20.98035282,26.35574532,-2.854637384,-15.39123344
20.99035282,20.90011024,-1.189232826,-15.6496582
21.00035282,17.35394669,-1.313659668,-11.82592773
21.01035282,14.03749371,-1.988435626,-5.834300041
21.02035282,10.55832958,-2.916850805,1.080957651
21.03035282,10.55832958,-2.916850805,1.080957651
21.04035282,10.55832958,-2.916850805,1.080957651
21.05035282,4.174279213,-1.543370605,18.84048653
21.06035282,4.174279213,-1.543370605,18.84048653
21.07035282,6.102894306,-2.337787628,15.48096466
21.08035282,6.921239376,-2.591426849,12.81057453
21.09035282,7.136593342,-2.715853691,10.69053364
21.10035282,6.658029079,-2.227717876,8.493922234
21.11035282,6.658029079,-2.227717876,8.493922234
21.12035282,7.610372543,-2.127219439,6.976872444
21.13035282,7.902296543,-1.883151412,7.034300327
21.14035282,8.17986393,-1.576870084,7.307082176
21.15035282,8.529216766,-1.720439434,7.374081135
21.16035282,10.62532902,-1.825723648,7.522436142
21.17035282,12.20937729,-1.763510346,7.93878746
21.18035282,13.90349579,-2.294716835,8.254639626
21.19035282,15.16212082,-2.97427845,9.0921278
21.20035282,15.85125351,-3.337987661,10.82931709
21.21035282,16.29631805,-4.007977962,12.91107273
21.22035282,15.54975796,-4.783252239,15.4857502
21.23035282,14.67877007,-4.381258488,16.20838165
21.24035282,14.07577896,-4.409972191,16.17488289
21.25035282,13.60200024,-5.056034088,16.07917023
21.26035282,13.28136253,-5.247459888,16.29930878
21.27035282,13.45843124,-4.888536453,17.30908012
21.28035282,13.45843124,-4.888536453,17.30908012
21.29035282,13.45843124,-4.888536453,17.30908012
21.30035282,13.45843124,-4.888536453,17.30908012
21.31035282,13.60678577,-5.089533806,16.04566956
21.32035282,12.33380413,-4.587040901,13.82513142
21.33035282,11.1948204,-3.893122435,11.96830082
21.34035282,10.10369396,-3.041277647,10.60439205
21.35035282,8.912068367,-1.706082582,9.518050194
21.36035282,8.031509399,-1.366301775,9.987043381
21.37035282,7.079165936,-0.988235772,11.64766216
21.38035282,7.079165936,-0.988235772,11.64766216
21.39035282,5.79661274,-0.270388961,15.52403545
21.40035282,4.839483738,-0.217746854,15.35175228
21.41035282,3.810570002,-0.189032987,13.98305702
21.42035282,3.810570002,-0.189032987,13.98305702
21.43035282,1.580459356,0.619741082,8.278568268
21.44035282,1.580459356,0.619741082,8.278568268
21.45035282,0.125623181,1.270588875,6.144170284
21.46035282,-0.362512618,1.591227055,5.517251015
21.47035282,-0.687936485,1.80658114,4.942973614
21.48035282,-0.687936485,1.80658114,4.942973614
21.49035282,-2.214557409,0.940379322,2.47358036
21.50035282,-2.999403238,0.576670229,1.96151638
21.51035282,-4.095315933,0.169890404,1.234098315
21.52035282,-5.253442287,-0.098105729,0.621535659
21.53035282,-6.363711834,-0.323031068,0.099900343
21.54035282,-7.41176796,-0.418743968,-0.321236432
21.55035282,-7.41176796,-0.418743968,-0.321236432
21.56035282,-7.41176796,-0.418743968,-0.321236432
21.57035282,-9.818947792,0.332602352,-1.28315115
21.58035282,-9.115457535,0.174676046,-1.393221021
21.59035282,-7.842476368,-0.35174492,-1.546361685
21.60035282,-6.406782627,-0.997807026,-1.910070658
21.61035282,-6.406782627,-0.997807026,-1.910070658
21.62035282,-6.406782627,-0.997807026,-1.910070658
21.63035282,-5.674578667,-2.179861546,-5.810371399
21.64035282,-6.009573936,-2.222932339,-6.293721676
21.65035282,-6.430710793,-2.213361025,-6.585646152
21.66035282,-6.7704916,-2.14157629,-6.815357208
21.67035282,-6.7704916,-2.14157629,-6.815357208
21.68035282,-6.7704916,-2.14157629,-6.815357208
21.69035282,-4.794020176,-3.538984776,-5.154737949
21.70035282,-4.281956196,-4.395615101,-4.51346159
21.71035282,-4.24367094,-5.324030399,-3.9200418
21.72035282,-4.908875465,-6.166304111,-3.206980467
21.73035282,-6.196214199,-6.577869415,-2.383849621
21.74035282,-9.550951958,-7.688138962,0.310468733
21.75035282,-11.61356449,-8.13320446,2.291725874
21.76035282,-13.5469656,-8.271987915,4.430909157
21.77035282,-15.03530121,-8.544769287,6.254240036
21.78035282,-16.04507256,-9.248259544,7.02951479
21.79035282,-16.70070648,-10.3346014,7.584649563
21.80035282,-16.70070648,-10.3346014,7.584649563
21.81035282,-16.70070648,-10.3346014,7.584649563
21.82035282,-20.49572182,-17.07279015,11.99222851
21.83035282,-20.49572182,-17.07279015,11.99222851
21.84035282,-25.0612278,-20.43231201,13.99741459
21.85035282,-28.18146896,-21.86322021,12.49950695
21.86035282,-31.44527817,-23.93062019,9.451051712
21.87035282,-31.44527817,-23.93062019,9.451051712
21.88035282,-33.09632492,-41.13980103,-7.796414375
21.89035282,-28.43510818,-52.50570679,-10.95972633
21.90035282,-15.71007729,-67.63313293,-10.08873844
21.91035282,11.14696407,-87.59405518,-7.920841217
21.92035282,44.61776733,-103.3484039,-3.005983353
21.93035282,87.70293427,-95.44252014,28.57927513
21.94035282,87.70293427,-95.44252014,28.57927513
21.95035282,84.72625732,-58.78447342,60.60960007
21.96035282,78.61499023,-46.72943497,67.65885162
21.97035282,65.8995285,-34.32504272,67.33821869
21.98035282,50.64768219,-24.28475761,57.39842987
21.99035282,37.95136261,-18.23091507,39.95475388
22.00035282,37.95136261,-18.23091507,39.95475388
22.01035282,37.95136261,-18.23091507,39.95475388
22.02035282,14.09492207,-2.170290232,-16.34836197
22.03035282,12.26680565,-0.007178468,-17.63570023
22.04035282,11.53938675,1.208375454,-14.41496181
22.05035282,11.02253723,1.318445325,-8.849256516
22.06035282,10.12762165,1.356730461,4.66540575
22.07035282,10.38604641,1.323230863,11.28395367
22.08035282,11.42931747,0.882951558,16.53380585
22.09035282,12.9320097,0.323031068,19.61097527
22.10035282,14.88933849,-0.126819596,20.07518387
22.11035282,17.25344849,-0.930808008,18.79263115
22.12035282,17.25344849,-0.930808008,18.79263115
22.13035282,17.25344849,-0.930808008,18.79263115
22.14035282,18.46421623,-3.376272678,12.16451168
22.15035282,16.3393898,-3.759124279,11.33181
22.16035282,14.47777367,-3.830909014,11.24088287
22.17035282,13.51107311,-4.079762459,12.00180054
22.18035282,13.43928814,-4.582255363,13.30349541
22.19035282,13.43928814,-4.582255363,13.30349541
22.20035282,13.43928814,-4.582255363,13.30349541
22.21035282,14.66919899,-6.606583118,15.96431446
22.22035282,13.860425,-6.405586243,15.81595993
22.23035282,12.17587757,-5.448457241,15.54796314
22.24035282,10.17547798,-4.342973232,14.88275909
22.25035282,10.17547798,-4.342973232,14.88275909
22.26035282,10.17547798,-4.342973232,14.88275909
22.27035282,7.328019142,-1.715653777,9.618548393
22.28035282,7.160521984,-1.064806104,8.599205971
22.29035282,6.734599113,-0.198604286,7.71864748
22.30035282,6.629314899,0.748953462,7.876574039
22.31035282,6.629314899,0.748953462,7.876574039
22.32035282,6.629314899,0.748953462,7.876574039
22.33035282,6.035895348,1.160519004,10.46082211
22.34035282,4.777270317,1.184447169,9.273982048
22.35035282,3.834498405,1.122233868,7.709076405
22.36035282,3.150151014,1.399801254,6.177670002
22.37035282,2.508874655,2.007578135,4.847260475
22.38035282,2.508874655,2.007578135,4.847260475
22.39035282,2.508874655,2.007578135,4.847260475
22.40035282,2.508874655,2.007578135,4.847260475
22.41035282,2.34137702,3.06999135,1.057029366
22.42035282,1.35074842,3.031706333,0.626321316
22.43035282,-0.037088752,3.022135019,0.305683106
22.44035282,-1.582852125,2.983849764,-0.302093863
22.45035282,-1.582852125,2.983849764,-0.302093863
22.46035282,-1.582852125,2.983849764,-0.302093863
22.47035282,-1.582852125,2.983849764,-0.302093863
22.48035282,-4.37288332,3.40498662,-2.469991207
22.49035282,-4.191029072,3.16570425,-2.484348059
22.50035282,-3.966103554,2.873780012,-2.407777786
22.51035282,-3.688536167,2.347358942,-2.254637241
22.52035282,-3.688536167,2.347358942,-2.254637241
22.53035282,-3.698107481,1.85443759,-2.245065928
22.54035282,-3.774677753,1.672582984,-2.326421738
22.55035282,-3.856033802,1.442872047,-2.398206472
22.56035282,-3.985246181,1.189232826,-2.422134638
22.57035282,-4.157529354,0.658026218,-2.158924341
22.58035282,-4.296313286,0.366101861,-2.015354872
22.59035282,-4.205385685,0.131605253,-1.541576028
22.60035282,-3.846462488,-0.20817557,-1.1395818
22.61035282,-3.846462488,-0.20817557,-1.1395818
22.62035282,-2.784049034,-1.777867198,-1.240080357
22.63035282,-2.204986095,-2.57228446,-1.804786444
22.64035282,-2.204986095,-2.57228446,-1.804786444
22.65035282,-2.204986095,-2.57228446,-1.804786444
22.66035282,-2.204986095,-2.57228446,-1.804786444
22.67035282,1.35074842,-10.14317513,-1.082154036
22.68035282,0.656829834,-12.8757782,-0.393021107
22.69035282,-2.133201361,-14.30190086,0.994816005
22.70035282,-2.133201361,-14.30190086,0.994816005
22.71035282,-2.133201361,-14.30190086,0.994816005
22.72035282,-2.133201361,-14.30190086,0.994816005
22.73035282,-2.133201361,-14.30190086,0.994816005
22.74035282,-23.09432793,-14.43589878,14.15534019
22.75035282,-28.549963,-14.57946873,16.20838165
22.76035282,-33.32125092,-16.58465385,14.87318707
22.77035282,-37.00141144,-24.26082802,10.04925728
22.78035282,-37.03491211,-29.09432983,8.044071198
22.79035282,-38.29353714,-32.03750229,4.35912466
22.80035282,-38.93481445,-35.58845139,-0.397806764
22.81035282,-37.94897079,-41.25465393,-5.015954494
22.82035282,-34.22573853,-50.60580444,-6.824928284
22.83035282,11.60160065,-94.31788635,0.722034216
22.84035282,57.48158264,-119.7823105,-0.909870803
22.85035282,107.6255722,-118.6433258,-11.4382906
22.86035282,140.0100403,-95.62437439,-5.590231895
22.87035282,129.6347504,-66.98228455,27.16751099
22.88035282,78.75856018,-36.76093292,72.77471161
22.89035282,24.70948219,-15.09153271,80.22595978
22.90035282,26.29353142,-20.04946136,49.93282318
22.91035282,40.75096512,-20.03031921,22.31007957
22.92035282,40.75096512,-20.03031921,22.31007957
22.93035282,40.2963295,-14.5890398,-5.011168957
22.94035282,26.12603378,-8.554341316,-9.174679756
22.95035282,14.94676685,-4.261617184,-11.42393398
22.96035282,14.94676685,-4.261617184,-11.42393398
22.97035282,14.94676685,-4.261617184,-11.42393398
22.98035282,14.94676685,-4.261617184,-11.42393398
22.99035282,7.730013371,-3.476771355,5.20618391
23.00035282,6.997809887,-3.18006134,10.0779705
23.01035282,6.442675114,-3.007778168,14.02134228
23.02035282,6.442675114,-3.007778168,14.02134228
23.03035282,7.629515171,-4.304687977,16.80658722
23.04035282,7.629515171,-4.304687977,16.80658722
23.05035282,8.72064209,-4.926821709,13.88734436
23.06035282,8.725427628,-4.97467804,12.1980114
23.07035282,8.242077827,-4.735395908,10.74796104
23.08035282,7.409375191,-4.409972191,9.91047287
23.09035282,5.992824078,-3.768695593,9.728618622
23.10035282,5.921039581,-3.6299119,9.580264091
23.11035282,6.433103561,-3.572484255,9.39840889
23.12035282,7.328019142,-3.481556892,9.211769104
23.13035282,8.596215248,-3.342773199,8.938986778
23.14035282,9.787840843,-3.395415306,8.704490662
23.15035282,10.62532902,-2.921636343,9.920044899
23.16035282,10.62532902,-2.921636343,9.920044899
23.17035282,10.62532902,-2.921636343,9.920044899
23.18035282,10.62532902,-2.921636343,9.920044899
23.19035282,10.69711399,-2.136790514,11.46580791
23.20035282,10.86461163,-1.586441398,10.38903809
23.21035282,11.61117172,-1.208375454,9.690333366
23.22035282,11.61117172,-1.208375454,9.690333366
23.23035282,12.43908882,-1.194018483,9.005986214
23.23035282,12.43908882,-1.194018483,9.005986214
23.25035282,10.79282665,-0.729810894,7.07737112
23.26035282,9.993623734,-0.318245411,6.617949009
23.27035282,9.452845573,0.016749758,6.986443996
23.28035282,10.86461163,-0.021535404,9.498908043
23.29035282,11.40060329,-0.040677983,10.36989498
23.30035282,11.21396351,0.117248312,10.57089233
23.31035282,10.23769188,0.337387979,10.08275604
23.32035282,8.806783676,0.385244459,8.871988297
23.33035282,7.275377274,0.600598454,7.211369038
23.34035282,5.921039581,1.289731383,5.73260498
23.35035282,4.49970293,3.668197155,4.124628067
23.36035282,5.609972477,3.816552162,3.937987804
23.37035282,7.237092018,3.495913982,4.191627026
23.38035282,8.160721779,3.610769272,4.34476757
23.39035282,8.452646255,4.304687977,3.933202267
23.40035282,8.342576027,4.630111694,3.492922783
23.41035282,8.342576027,4.630111694,3.492922783
23.42035282,8.342576027,4.630111694,3.492922783
23.43035282,8.342576027,4.630111694,3.492922783
23.44035282,2.6620152,4.744967461,3.258426189
23.45035282,1.49431777,4.740181446,3.387638569
23.46035282,0.714257538,4.701896667,3.325425386
23.47035282,0.714257538,4.701896667,3.325425386
23.48035282,0.714257538,4.701896667,3.325425386
23.49035282,0.714257538,4.701896667,3.325425386
23.50035282,0.585045159,3.610769272,0.190827608
23.51035282,-0.142372951,3.390629768,0.071186475
23.52035282,-1.147358418,3.218346357,0.181256309
23.53035282,-2.271985054,3.294916868,0.200398892
23.54035282,-4.171886444,3.40498662,-0.335593373
23.55035282,-4.554738045,3.328416348,-0.613160789
23.56035282,-4.621737003,3.247060299,-0.943370342
23.57035282,-4.56430912,3.170490026,-1.297508121
23.58035282,-4.530809879,3.074777126,-1.670788407
23.59035282,-4.612165451,2.98863554,-2.044068813
23.60035282,-5.349154949,2.629712105,-2.465205431
23.61035282,-5.349154949,2.629712105,-2.465205431
23.62035282,-5.349154949,2.629712105,-2.465205431
23.63035282,-5.349154949,2.629712105,-2.465205431
23.64035282,-4.473381996,0.801595569,-1.144367456
23.65035282,-3.76510644,0.031106694,-0.574875653
23.66035282,-2.812762976,-1.222732425,-0.144167557
23.67035282,-2.812762976,-1.222732425,-0.144167557
23.68035282,-3.745963812,-5.716453075,-0.96251291
23.69035282,-5.291727066,-6.391229153,0.702891648
23.70035282,-7.033702374,-6.525227547,3.330210924
23.71035282,-8.627322197,-6.37687254,6.201598167
23.72035282,-9.79501915,-6.099305153,8.47956562
23.73035282,-10.97228813,-5.974878311,9.250054359
23.74035282,-10.62293625,-5.946164131,8.024929047
23.75035282,-9.393025398,-6.678368092,6.340381622
23.76035282,-8.120043755,-8.788837433,5.0291152
23.77035282,-8.440681458,-11.45922756,5.392824173
23.78035282,-10.64686394,-12.3924284,7.981858253
23.79035282,-14.1499567,-12.36371422,10.34596729
23.80035282,-14.1499567,-12.36371422,10.34596729
23.81035282,-14.1499567,-12.36371422,10.34596729
23.82035282,-14.1499567,-12.36371422,10.34596729
23.83035282,-39.3942337,-27.35714149,27.16751099
23.84035282,-42.82075882,-32.44906616,22.81735802
23.85035282,-37.34597778,-42.58985138,16.68694687
23.86035282,-37.34597778,-42.58985138,16.68694687
23.87035282,30.09811974,-85.95258331,10.05882835
23.88035282,69.0867691,-90.09216309,19.31905174
23.89035282,98.74819946,-85.81858063,14.47119331
23.90035282,97.70014191,-65.87680054,6.201598167
23.91035282,80.03153992,-46.41836548,9.350552559
23.92035282,80.03153992,-46.41836548,9.350552559
23.93035282,80.03153992,-46.41836548,9.350552559
23.94035282,80.03153992,-46.41836548,9.350552559
23.95035282,80.03153992,-46.41836548,9.350552559
23.96035282,36.41995621,-9.956535339,41.00759506
23.97035282,27.11666298,-9.889535904,25.08096886
23.98035282,21.46481514,-9.506684303,4.727619171
23.99035282,21.46481514,-9.506684303,4.727619171
24.00035282,6.902096748,-1.485942841,-22.63669968
24.01035282,5.083551884,-1.395015597,-17.18106461
24.02035282,5.083551884,-1.395015597,-17.18106461
24.03035282,1.676172256,-2.199003935,-0.359521598
24.04035282,1.532602906,-2.376072884,8.718847275
24.05035282,1.532602906,-2.376072884,8.718847275
24.06035282,1.532602906,-2.376072884,8.718847275
24.07035282,1.532602906,-2.376072884,8.718847275
24.08035282,13.70249844,-6.319444656,13.77727413
24.09035282,13.76471233,-6.534798622,11.67637634
24.10035282,12.96550941,-6.506084919,10.27896786
24.11035282,11.60638618,-6.338587284,9.384052277
24.12035282,8.734998703,-5.668596745,7.52722168
24.13035282,8.213363647,-5.280959606,7.498507977
24.14035282,8.414361,-5.376672268,8.235497475
24.15035282,8.964710236,-5.453242779,9.412766457
24.16035282,9.720842361,-5.438885689,10.44646549
24.17035282,10.38126087,-5.367101192,11.00160027
24.18035282,11.20917797,-5.639883041,10.0779705
24.19035282,10.93161011,-5.548955917,9.340981483
24.20035282,10.44347477,-5.19481802,9.26919651
24.21035282,9.620343208,-4.687539577,9.776474953
24.22035282,8.342576027,-4.151547432,10.58524895
24.23035282,6.997809887,-3.902693748,10.61396313
24.24035282,6.399604321,-3.716053486,10.45603657
24.25035282,6.399604321,-3.716053486,10.45603657
24.26035282,5.968895912,-2.821137905,9.388837814
24.27035282,7.069594383,-2.902493954,9.355338097
24.28035282,7.940581799,-2.711068153,9.42712307
24.29035282,8.577073097,-2.404786825,9.264410973
24.30035282,9.170493126,-2.074577332,8.680562019
24.31035282,8.567501068,-0.835095108,8.522636414
24.32035282,7.610372543,-0.241675094,9.015557289
24.33035282,6.619743824,0.246460736,9.216554642
24.34035282,5.935396671,0.610169768,9.135198593
24.35035282,5.504688263,1.275374413,8.675776482
24.36035282,5.66740036,1.907079697,7.986643791
24.37035282,6.370890141,1.978864312,7.2065835
24.38035282,7.146164894,2.299502611,5.852245808
24.39035282,7.146164894,2.299502611,5.852245808
24.40035282,5.423332691,3.247060299,4.789832592
24.41035282,4.595416069,3.582055569,4.761118889
24.42035282,3.863212109,3.806980848,4.732405186
